timestamp,AccX,BrightnessEV,LinearAccelerometerSensor,AccY,AccZ,BarometerSensor,CompassSensor,MagneticRotationSensor,PitchSensor,DecibelSource
1557947613175,-0.19579284667968752,-2.345784722101357,0.2802093924790165,1.4765295410156252,9.80236587524414,997.5886535644531,343.1280822753906,41.4281583134692,0.0,21.367205671564065
1557947613198,-0.27198440551757813,-2.345784722101357,0.06240006021886224,1.477577362060547,9.680818634033203,997.5886535644531,343.1280822753906,41.42815887639551,0.0,22.71841606536499
1557947613268,-0.17678237915039063,-2.4737923344774284,0.03584901688741357,1.6266673278808594,9.74144256591797,997.5970458984375,343.1280822753906,41.42815996121472,0.0,23.384564936046047
1557947613349,0.19564315795898438,-2.4298489868898314,0.21398836096576376,1.3820759582519533,10.523117065429688,997.5970458984375,344.83477783203125,41.428156918147366,0.0,21.84691430817599
1557947613401,0.2549198913574219,-2.550143220607543,0.22048708648392756,1.9417620849609376,9.53891372680664,997.5970458984375,348.517822265625,41.42816270186778,0.0,20.253058652647702
1557947613523,1.7666262817382814,-2.6307616808158274,0.574762974454721,2.614313507080078,10.62715072631836,997.5970458984375,350.21502685546875,41.42816170522837,0.0,22.87801729930226
1557947613590,1.5401472473144533,-2.503849568333608,0.10053574478769091,2.3249652099609377,10.076595611572266,997.5970458984375,352.2227478027344,41.42815945618797,0.0,25.74031267727719
1557947613660,-0.24533981323242188,-2.2923454631398963,0.5624941176045242,1.1840377807617188,9.125323791503908,997.5970458984375,352.2227478027344,41.42816069805143,0.0,21.55336037465062
1557947613722,-2.26808349609375,-2.1668145810560375,0.7601910315277647,0.47032196044921876,9.252559204101564,997.5970458984375,352.72076416015625,41.42816276384924,0.0,20.863598306747484
1557947613789,-2.0348684692382815,-2.1910621273027147,0.16764178732318952,1.1669732666015626,9.209448852539063,997.5970458984375,350.76312255859375,41.42816045001942,0.0,21.172712956557646
1557947613859,-0.8259823608398438,-2.2033404570811514,0.3044525674716035,1.550775146484375,8.997040557861329,997.5970458984375,351.8716125488281,41.42815776356755,0.0,22.671717284030137
1557947613923,-0.9981243896484375,-2.1788874133566125,0.2495826770342111,2.0986358642578127,9.786199493408203,997.5970458984375,351.726318359375,41.42815900160585,0.0,25.250448070368453
1557947613989,1.611698455810547,-2.597971745698158,0.7261964736903107,2.7940896606445316,8.737180938720703,997.5970458984375,345.1531982421875,41.428158078525165,0.0,24.857214264815802
1557947614058,2.449805603027344,-2.4443485565849463,0.5058116472557936,1.891766052246094,10.129286041259766,997.5970458984375,344.8041076660156,41.428160719108284,0.0,27.24275869600789
1557947614123,2.8958779907226564,-2.215724181536984,0.2623071394165061,1.8901194763183595,9.20450912475586,997.5970458984375,341.93963623046875,41.428159669483705,0.0,25.263392773898442
1557947614189,4.319118347167969,-1.8740328318281916,0.5800231439087356,0.5043013000488281,10.192304992675782,997.5970458984375,341.93963623046875,42.45878095907621,0.0,26.201360549737576
1557947614259,4.553081817626953,-1.7391654175031355,0.31112627909814294,0.07544311523437501,9.263785858154298,997.5970458984375,335.080322265625,42.458780001167504,0.0,24.563660331290432
1557947614323,5.567821655273438,-1.7151284710942645,0.294028809288213,0.30267059326171875,9.485025787353516,997.6088714599609,334.1447448730469,42.45877896472583,0.0,25.024271199844325
1557947614389,6.003715209960938,-2.2250133063769213,0.36203810482276455,0.6746470642089845,8.28287567138672,997.6088714599609,334.43017578125,42.458776756591035,0.0,21.84691430817599
1557947614459,5.389392700195312,-2.897438648348417,0.13308994055432274,0.3710783386230469,8.34993621826172,997.6088714599609,334.43017578125,42.45877554446861,0.0,21.986570869544227
1557947614523,4.60128158569336,-3.647440421962458,0.23849997472128281,0.2640509033203125,8.121660919189454,997.6088714599609,336.80609130859375,42.458772993259146,0.0,23.61727836017593
1557947614589,5.159470825195313,-3.9444221597195894,0.3164669826983564,0.8575666809082032,7.1049751281738285,997.6088714599609,335.3757019042969,42.45877450663993,0.0,22.25309281725863
1557947614659,5.260510711669922,-3.9444221597195894,0.6301208443051787,1.7989590454101563,9.646988983154298,997.6088714599609,332.9559326171875,42.45877301723713,0.0,26.866362692622936
1557947614723,6.156697082519532,-3.751777081777194,0.5128923631228706,0.8192463684082032,8.351133728027344,997.6088714599609,336.5699768066406,42.458782382191394,0.0,28.57935264719429
1557947614789,4.935835876464844,-3.6813877538857955,0.6533461089596624,1.9420614624023438,6.777156829833984,997.6088714599609,341.4615783691406,42.45878377039523,0.0,24.563660331290432
1557947614859,4.426594848632813,-2.3732654585234636,0.21658160891410522,1.8402731323242187,6.932234344482422,997.6088714599609,341.4615783691406,42.45878420752828,0.0,23.560258571931225
1557947614923,4.4634182739257815,-1.6474404219624579,0.18017953882234922,2.4602838134765626,6.912924499511719,997.6088714599609,348.5116882324219,42.45878553797482,0.0,24.94154594018443
1557947614989,3.6410284423828125,-1.6349220039090573,0.6894922917838822,2.6765840148925784,9.526489562988282,997.6088714599609,350.85028076171875,42.458785338564184,0.0,32.63872676865223
1557947615058,1.1966116333007812,-1.6590550938170021,0.6690616351141278,2.708318023681641,6.912625122070313,997.6088714599609,2.47259521484375,42.45878690102325,0.0,27.60422483423212
1557947615123,5.496869201660156,-1.6002946852883462,1.391303034639592,2.4086412048339847,12.875175933837891,997.6088714599609,359.3687438964844,43.061626439230245,0.0,29.464522650130732
1557947615189,4.772076416015625,-1.601787504741919,0.19845881996875392,2.853665771484375,11.157497863769532,997.6088714599609,13.078975677490234,43.06162610648245,0.0,27.611758131557313
1557947615258,3.8806800842285156,-1.6117715933145413,0.49851285791506805,1.0874885559082033,10.642269287109375,997.6088714599609,15.226445198059082,43.06162857450109,0.0,26.875289612146346
1557947615323,2.5572821044921876,-1.6731721379786846,0.9896826388837848,4.90260498046875,9.48083450317383,997.6181030273438,11.90905475616455,43.06162955978959,0.0,28.73320601815399
1557947615389,3.6181260681152345,-1.7930119079846878,0.2512268141680994,4.581372985839844,9.81673599243164,997.6181030273438,11.90905475616455,43.06162967570649,0.0,26.866362692622936
1557947615458,-1.3497431945800782,-1.8159123100947667,1.7408155396308678,3.520229644775391,4.683311004638672,997.6181030273438,353.4364013671875,43.061629293160365,0.0,27.16003343634799
1557947615523,2.46447509765625,-1.8990535453950124,0.7447016026453476,3.866459655761719,6.987619171142579,997.6181030273438,359.4827575683594,43.06163079119808,0.0,25.4282542695918
1557947615589,1.9600241088867187,-1.8275002843699786,0.455259322835731,4.445006561279297,5.184917907714844,997.6181030273438,350.4469909667969,43.06163415022512,0.0,24.18301291319746
1557947615659,3.9769299316406252,-1.8391820894176139,0.9803916940730371,6.993157653808594,3.7125796508789066,997.6181030273438,348.6578063964844,43.06163465338928,0.0,22.30448921378274
1557947615722,3.2489936828613284,-1.6942337535065142,1.2293986401725159,3.2992890930175784,8.070018310546875,997.6181030273438,8.04913330078125,43.061635218623486,0.0,26.17000341120899
1557947615789,4.812192993164063,-1.6319494752521717,0.38096052815254633,3.8335281372070313,7.093000030517579,997.6181030273438,343.7622985839844,43.06163904693683,0.0,31.228709228644355
1557947615858,2.568808135986328,-1.7048809977060226,0.6496887279811708,3.921844482421875,8.902137908935547,997.6181030273438,349.8702392578125,43.06163683408298,,29.206450014067876
1557947615923,3.078498229980469,-1.6731721379786846,0.5915038359717052,3.036735076904297,10.647358703613282,997.6181030273438,349.8702392578125,43.06163870107385,0.0,29.59994838328416
1557947615989,3.885769500732422,-1.911331875173449,0.79897035632992,6.319857788085938,9.70267318725586,997.6181030273438,343.09869384765625,43.06163700772717,0.0,31.152775913959015
1557947616058,3.5437307739257813,-2.0135122699799273,0.19496355841133475,6.249354400634766,9.476643218994141,997.6181030273438,344.49981689453125,43.061636277345904,0.0,28.122446968003693
1557947616123,1.229842529296875,-2.496294375894605,0.8570931600540367,5.691314849853516,7.08970687866211,997.6181030273438,334.7208557128906,43.06163373139056,0.0,26.201360549737576
1557947616189,2.798131256103516,-2.8275002843699784,1.1231216214844983,5.479205932617187,3.333567810058594,997.6181030273438,326.53057861328125,43.0616351179138,0.0,25.888317255942074
1557947616258,5.219645690917969,-2.711705896512176,1.3192314706268946,4.489015045166016,0.10597961425781251,997.6181030273438,315.73455810546875,43.06163601789137,0.0,26.201360549737576
1557947616323,8.67625762939453,-2.444079271462207,1.378884386330323,3.1925610351562503,-2.2438339233398437,997.6230621337891,302.3775634765625,43.06163362881511,0.0,24.377505628203878
1557947616389,11.04148910522461,-2.3693115030602345,0.8891545307800504,4.1147932434082035,-2.2555096435546877,997.6230621337891,295.028076171875,43.06163685550952,0.0,23.74748346010104
1557947616458,8.065228271484376,-2.413705622418688,0.6628537317599633,3.54702392578125,-0.5116360473632813,997.6230621337891,296.4421691894531,43.061636698101445,0.0,28.58537197569639
1557947616523,9.9680712890625,-2.413705622418688,0.4467563201989282,4.733157348632813,-1.2722044372558594,997.6230621337891,294.531005859375,43.06163746557792,0.0,27.730546933642625
1557947616589,14.076278228759767,-2.428812514808896,1.1628889991384235,4.710404663085938,0.15088623046875002,997.6230621337891,296.6229553222656,43.061634728776504,0.0,29.138138523837167
1557947616657,11.55402328491211,-2.4751061670828314,0.5099781224836948,3.181334381103516,-0.032931518554687504,997.6230621337891,301.5965576171875,43.06163584372832,0.0,26.042260530844704
1557947616723,7.9203295898437505,-2.4595093120318126,1.0380965440024659,2.664309539794922,-0.8265811157226562,997.6230621337891,303.34613037109375,43.06163772342472,0.0,27.39572344450092
1557947616789,10.478809204101562,-2.4751061670828314,0.43305623328613696,2.740950164794922,0.09744735717773438,997.6230621337891,298.6629333496094,43.06163732729248,0.0,26.919651027673606
1557947616857,7.147935791015625,-2.506815026810169,0.7848643779141115,2.0216958618164065,-0.8861572265625001,997.6230621337891,290.5037536621094,43.06163782723794,0.0,26.963563887333322
1557947616923,11.677217102050783,-2.5392365045025467,0.9622827713448441,1.7820442199707032,-1.172362060546875,997.6230621337891,282.9813537597656,43.06163816699604,0.0,26.61812685537261
1557947616989,11.689940643310548,-2.572403368437746,0.45176402292976386,2.1549188232421876,-2.557731170654297,997.6230621337891,294.2110595703125,43.06163425914906,0.0,26.90196080028514
1557947617057,7.940387878417969,-2.428812514808896,0.9106822360440142,1.5606546020507814,-1.3587245178222658,997.6230621337891,310.1763916015625,43.061636231627745,0.0,25.932860670204573
1557947617123,7.599097595214844,-2.4751061670828314,0.37895968698346943,2.591710510253906,-1.4979350280761718,997.6230621337891,304.8758544921875,43.06163354055187,0.0,24.78566495593843
1557947617189,7.928113403320313,-2.5229346921734463,0.24159228611310646,3.3163536071777346,-1.3359718322753906,997.6230621337891,302.4048767089844,43.06163304820926,0.0,25.58708570533166
1557947617257,7.153025207519532,-2.555724627291116,0.23294454373673923,3.273842010498047,-0.8918453979492188,997.6230621337891,302.82025146484375,43.06163575173752,0.0,26.570558528571038
1557947617323,8.212222595214843,-2.4908734829411476,0.3461190564173791,3.599864044189453,-2.026336212158203,997.6261138916016,305.8136901855469,43.06163243651235,0.0,26.344772701607315
1557947617389,8.61099334716797,-2.3987552809527166,0.26568951158922005,3.626957702636719,-0.9153465270996094,997.6261138916016,316.3345947265625,43.06163644392792,0.0,26.03144372620182
1557947617457,6.342161407470703,-2.3404566403880493,0.6638895462545584,5.202431488037109,-1.157842254638672,997.6261138916016,331.75048828125,49.25870191913781,0.0,27.291647896927703
1557947617523,7.871980133056641,-2.4595093120318126,1.1796687682137637,7.814200286865235,2.339784393310547,997.6261138916016,350.0557556152344,49.25869922465242,0.0,28.494194137968996
1557947617590,8.271050262451173,-2.506815026810169,0.6576437860686517,7.4007600402832034,3.993545379638672,997.6261138916016,344.5204162597656,49.25869654248135,0.0,28.115750058705935
1557947617660,7.972570953369141,-2.5229346921734463,0.06100545993393051,7.279063110351563,3.561094665527344,997.6261138916016,345.545654296875,49.25869876437113,0.0,28.66287339084195
1557947617722,5.984555053710938,-2.506815026810169,1.0257808341345303,3.7940103149414064,4.244273986816406,997.6261138916016,0.95086669921875,49.25870031510593,0.0,26.263403673750425
1557947617789,5.337301025390626,-2.3987552809527166,0.4007535079437279,3.606749725341797,3.7212615966796876,997.6261138916016,357.17425537109375,49.25870715863869,0.0,25.831987739686227
1557947617857,4.213887176513672,-2.2042522567897382,0.44421784520302904,2.83809814453125,4.115691375732422,997.6261138916016,346.9815673828125,49.25870789936453,0.0,26.503075231319364
1557947617922,4.332740020751953,-2.056153617800604,0.1528771969196819,2.8030709838867187,4.521048431396484,997.6261138916016,348.2677917480469,49.25870778731558,0.0,25.943925503754265
1557947617990,5.016218719482422,-1.8901436663616749,0.3875821828724923,1.565294952392578,4.9424221801757815,997.6261138916016,353.5798645019531,49.25870861974071,0.0,30.472748673841792
1557947618058,6.460415496826172,-1.8797270504163366,0.6642857866019429,1.8097366333007814,6.51729721069336,997.6261138916016,354.9552307128906,49.25870689526796,0.0,28.09559714635268
1557947618123,11.07980941772461,-2.0679307855769578,1.6679947750857198,1.4410533142089845,10.258617095947265,997.6261138916016,313.17657470703125,49.258707676074,0.0,29.380190974762105
1557947618190,12.574002227783204,-2.4908734829411476,0.7599919729064598,0.5358856201171875,8.880133666992188,997.6261138916016,265.1270751953125,49.25870580137021,0.0,29.618954736678504
1557947618258,8.580007781982422,-2.5229346921734463,1.293222462407332,1.5623011779785156,5.050647125244141,997.6261138916016,196.00881958007812,49.25870706645629,0.0,28.034571156484137
1557947618323,5.690416717529297,-2.6588181202552192,1.2039794419848397,0.3418890380859375,3.1487022399902345,997.6292419433594,280.3079833984375,49.25870764792671,0.0,28.260748027008265
1557947618390,6.616391143798828,-3.0213881996399277,1.1387025021635253,-0.08053253173828126,-0.6345304870605469,997.6292419433594,269.9377746582031,49.25870834894391,0.0,30.390173219974116
1557947618459,9.739346923828126,-6.266350254606952,1.0667032057590389,-0.9580078125,-1.962718505859375,997.6292419433594,261.69305419921875,49.25870552091858,0.0,29.489017609702138
1557947618523,11.584260406494142,-7.073705176664556,0.8733006287291792,-2.508333892822266,0.4590953063964844,997.6292419433594,264.10125732421875,49.25870777620003,0.0,30.38620161949703
1557947618590,11.266920318603516,-7.073705176664556,0.737922285543424,-5.009632415771485,0.6608757019042969,997.6292419433594,285.49609375,49.25870635133897,0.0,33.57934847000454
1557947618661,9.651629333496095,-7.073705176664556,1.039203743172396,-6.995552673339844,3.2621662902832034,997.6292419433594,250.15713500976562,49.25870899959665,,34.66125870418199
1557947618723,5.472320251464844,-7.073705176664556,2.170281050265419,-0.8382568359375,7.520361328125,997.6292419433594,216.276611328125,49.25870871747097,47.783203125,32.44029589030021
1557947618789,9.618248748779298,-6.073705176664556,1.9005901431124612,-4.315226440429687,4.9952622985839845,997.6292419433594,286.4093933105469,49.258706925956886,47.783203125,31.559430179718365
1557947618861,2.1245320129394534,-5.4887426759434,2.533591101211683,-2.271975402832031,6.677314453125001,997.6292419433594,291.1097717285156,49.25870634498681,,41.51400498035618
1557947618923,6.728807373046875,-6.073705176664556,4.02205949493441,0.4340972900390625,-9.533824310302736,997.6292419433594,287.7130126953125,49.25870750929175,51.0986328125,50.79647861854586
1557947618990,5.927523651123047,-5.4887426759434,1.6378326687832458,-3.1298414611816407,0.48454238891601564,997.6292419433594,290.9279479980469,49.25870711694428,53.8330078125,52.1901574678958
1557947619061,11.038195953369142,-7.073705176664556,3.0101221906066,0.32721954345703125,-2.4107368469238284,997.6292419433594,303.8215026855469,49.2587092165787,53.8330078125,54.171626778477666
1557947619123,16.097075958251953,-7.073705176664556,0.8857008405860105,3.9339692687988284,0.5007087707519532,997.6292419433594,280.811767578125,49.25870548109149,,55.01324963665943
1557947619190,9.124425659179687,-7.073705176664556,1.8292672925893732,-0.8005352783203126,-0.034877471923828125,997.6292419433594,278.50848388671875,49.258708644952065,187.39461263020831,39.039577085231706
1557947619258,13.221256256103516,-7.073705176664556,2.0457639445936966,-4.533472595214844,-2.684367828369141,997.6292419433594,273.0986633300781,49.258707768886886,187.39461263020831,41.94791757721924
1557947619323,12.36593490600586,-7.073705176664556,0.3332815445746758,-3.234324188232422,-1.8851797485351562,997.6347351074219,274.936279296875,49.25871008328598,,34.0925665203891
1557947619389,6.537205810546875,-7.073705176664556,1.8079093678103972,0.48948211669921876,-1.5684384155273439,997.6347351074219,278.2851867675781,49.258710117063885,56.3330078125,31.54423973114647
1557947619460,7.024592285156251,-7.073705176664556,0.4106700927100978,-1.7688716125488282,-1.9294876098632814,997.6347351074219,278.16552734375,49.25870857765041,,27.25094521081469
1557947619523,5.859415283203125,-7.073705176664556,0.3760304759833572,-1.4711407470703126,-2.2806573486328126,997.6347351074219,278.16552734375,49.25871000803154,,30.948203803548
1557947619590,6.943460998535157,-7.073705176664556,0.3463906670891818,-0.6539900207519531,-1.1605366516113282,997.6347351074219,276.50213623046875,49.25870971768088,56.6015625,29.85426474083002
1557947619660,11.060349884033204,-7.073705176664556,1.1043722316796645,0.05792953491210938,-1.952839050292969,997.6347351074219,279.6544189453125,49.25870566682664,45.029296875,40.36708721569886
1557947619723,12.15038314819336,-7.073705176664556,1.0372984451521419,2.3773562622070314,0.6524931335449219,997.6347351074219,277.40625,49.25870877235068,33.6328125,36.19927710291468
1557947619789,15.739768981933594,-7.073705176664556,1.220508562837904,3.793112182617188,1.6386424255371095,997.6347351074219,275.83447265625,49.25870931262212,33.6328125,35.53640336231354
1557947619861,11.100915527343751,-7.073705176664556,1.5487643378542335,-1.1680210876464845,-1.2600796508789063,997.6347351074219,275.83447265625,49.25870567846196,,29.143431571194405
1557947619923,7.055877227783204,-7.073705176664556,1.3382561016585355,2.0422032165527346,-0.4454736328125,997.6347351074219,270.1212158203125,49.25870991445171,0.0,27.16837723299524
1557947619990,6.288572845458985,-7.073705176664556,0.5123931197865038,1.1538006591796877,-0.2808160400390625,997.6347351074219,264.2317810058594,49.25870958076278,0.0,29.576072870600953
1557947620060,7.010371856689454,-7.073705176664556,0.4020184469359667,2.19623291015625,-1.6131953430175783,997.6347351074219,259.5137939453125,49.258710879405314,0.0,31.883659260631486
1557947620123,9.203760681152344,-7.073705176664556,0.7139111961216781,3.0660740661621095,-2.661914520263672,997.6347351074219,268.62359619140625,49.258710938281425,0.0,27.512791039833424
1557947620190,10.171348571777344,-7.073705176664556,0.44375903963704294,2.2972727966308595,-1.5657440185546876,997.6347351074219,275.6871643066406,49.25870768231971,,34.32327792261604
1557947620258,12.787009277343751,-7.073705176664556,1.4312839335035383,-0.4028123474121094,2.2230271911621093,997.6347351074219,275.9836730957031,49.2587045555244,,35.2608069180203
1557947620323,13.063933410644532,-7.073705176664556,0.806590744479732,-1.7410295104980469,3.5042129516601563,997.6487731933594,261.0713195800781,49.258710488159544,34.86328125,36.585837154070624
1557947620389,12.539274444580078,-7.073705176664556,0.7937654409097735,0.5921685791015625,0.34907409667968753,997.6487731933594,255.34246826171875,49.25870620997711,,35.514499979728754
1557947620460,9.186995544433595,-7.073705176664556,0.8619942588186116,0.5803431701660157,1.005908203125,997.6487731933594,246.00428771972656,49.258708152569646,,27.075701760979364
1557947620523,7.890691223144532,-7.073705176664556,0.5654028228380968,-0.20731887817382813,0.8313711547851563,997.6487731933594,221.27317810058594,49.25870598120851,0.0,29.242792860618817
1557947620589,8.05639663696289,-7.073705176664556,0.5366416373687749,-1.8999989318847657,1.2853770446777344,997.6487731933594,214.7196807861328,49.2587080965639,0.0,24.36162647040756
1557947620660,10.572214965820313,-7.073705176664556,0.9809728933427477,0.0047900390625,-0.6530918884277344,997.6487731933594,209.4664764404297,49.25870681947647,0.0,29.79548374704095
1557947620723,10.108479309082032,-7.073705176664556,0.6857184323842165,-0.03323089599609375,-2.902613983154297,997.6487731933594,209.4664764404297,49.25871090178541,0.0,26.910814921229687
1557947620790,11.827654266357422,-7.073705176664556,0.5349198632724195,-0.24159759521484375,-1.0901829528808595,997.6487731933594,193.84426879882812,49.25870744621644,0.0,34.16973172603036
1557947620861,10.11940658569336,-7.073705176664556,1.052697389789684,0.38095779418945314,2.602039031982422,997.6487731933594,181.8441162109375,49.25870907171774,,30.94471128641645
1557947620923,6.349346466064453,-7.073705176664556,1.4144326699561312,2.904859313964844,4.471351776123047,997.6487731933594,178.0670623779297,49.25871050418257,,31.717264536532312
1557947620989,10.005044403076173,-6.751777081777194,1.1495724616671512,-1.114582214355469,5.478307800292969,997.6487731933594,167.28109741210938,49.25870988919012,0.0,27.708520116421443
1557947621060,10.717263336181642,-7.073705176664556,0.8383723640019509,0.1471440124511719,2.0166064453125,997.6487731933594,167.28109741210938,49.258705448465484,0.0,28.536982117761745
1557947621123,9.204658813476563,-7.073705176664556,0.32077201325665383,0.4140390014648438,3.146756286621094,997.6487731933594,160.07550048828125,49.258707226764045,0.0,27.084209001347126
1557947621190,9.051527252197266,-7.073705176664556,0.3347928663785426,0.2842588806152344,1.791324920654297,997.6487731933594,156.91026306152344,49.2587081030063,0.0,24.517864355242903
1557947621260,8.683442687988281,-7.073705176664556,0.43253304274373733,1.689536590576172,1.204545135498047,997.6487731933594,166.29898071289062,49.25871001275123,0.0,26.283889300503116
1557947621323,8.916058959960939,-7.073705176664556,0.2566173256660173,0.32527359008789064,1.5313156127929688,997.6769256591797,164.38270568847656,49.25870744346618,0.0,33.18689269947746
1557947621389,9.845326538085938,-7.073705176664556,0.2671896140364806,0.7702981567382813,1.0713221740722656,997.6769256591797,161.7498016357422,49.258711983508235,0.0,28.796692056320534
1557947621460,10.721604309082032,-7.073705176664556,0.33835296300978746,1.0080038452148439,0.4689747619628907,997.6769256591797,160.22470092773438,49.2587119692547,0.0,34.06028944963615
1557947621523,10.813363494873048,-7.073705176664556,0.6615719402423196,2.6923013305664063,-1.129102020263672,997.6769256591797,160.22470092773438,49.25870863338376,,31.931245983544617
1557947621590,12.217593383789064,-7.073705176664556,0.8802689280131685,-0.00029937744140625,1.4323713684082031,997.6769256591797,155.49362182617188,49.258711368363095,0.0,29.938769149412114
1557947621661,6.208938446044923,-7.073705176664556,1.6208546397472812,-1.6212785339355469,3.2214509582519533,997.6769256591797,182.76568603515625,49.258707635572826,0.0,36.017341482601054
1557947621723,10.884765014648439,-6.751777081777194,0.8724981568515704,-1.3018428039550782,4.392016754150391,997.6769256591797,177.5750732421875,49.258703911464266,,32.079035303860515
1557947621790,11.934981079101563,-7.073705176664556,1.121028178860702,-1.8077906799316408,-0.4926255798339844,997.6769256591797,175.65872192382812,49.25871070390807,0.0,28.068580295188177
1557947621862,7.296277313232422,-7.073705176664556,1.0967978039810682,-1.4630575561523438,1.81781982421875,997.6769256591797,170.4815216064453,49.25870424760381,0.0,26.473829701146197
1557947621923,9.223818969726564,-7.073705176664556,0.224122699540719,-1.2307406616210939,1.4940431213378906,997.6769256591797,161.66680908203125,49.25870648568188,0.0,26.159500516564012
1557947621990,8.668623504638672,-7.073705176664556,0.22993105933456096,-1.9308348083496094,0.9515711975097657,997.6769256591797,158.60748291015625,49.25870704721563,0.0,23.57934847000454
1557947622061,10.281669158935548,-7.073705176664556,0.5988936210017416,-0.8840615844726563,-0.5325924682617188,997.6769256591797,154.4456329345703,49.258712074893836,0.0,25.490032620257878
1557947622123,10.09111541748047,-7.073705176664556,0.1907413461711644,-1.4891033935546876,0.61072998046875,997.6769256591797,148.90853881835938,49.25870915734166,0.0,26.042260530844704
1557947622190,10.556347961425782,-7.073705176664556,0.4769848378683058,-2.8707302856445316,-0.1035845947265625,997.6769256591797,145.3251953125,49.25870466375104,0.0,30.2201573981772
1557947622260,11.747421112060547,-7.073705176664556,0.6759588197957577,-3.390150146484375,2.185155944824219,997.6769256591797,138.94569396972656,49.25870926947569,0.0,26.55138434811382
1557947622323,9.66584976196289,-7.073705176664556,0.8898978798666799,-0.09744735717773438,2.1772224426269533,997.7165222167969,136.835693359375,49.25870536952911,0.0,25.976951859255124
1557947622390,6.768175506591797,-7.073705176664556,1.018564136472689,-1.3007949829101564,4.342170410156251,997.7165222167969,133.32699584960938,49.25870832486051,0.0,32.24791956492681
1557947622463,10.240804138183595,-7.073705176664556,0.8288090954736949,-1.3570779418945313,1.7676741027832032,997.7165222167969,132.08291625976562,49.25870690866597,0.0,26.35483746814912
1557947622523,9.99531463623047,-7.073705176664556,0.9978982358305714,2.1682411193847657,0.12633728027343752,997.7165222167969,134.1681671142578,49.25870844958802,0.0,27.3559889969818
1557947622590,9.128616943359376,-7.073705176664556,0.43570888765787547,0.33859588623046877,1.97589111328125,997.7165222167969,134.1681671142578,49.2587079094444,0.0,25.68201724066995
1557947622658,8.766819305419922,-7.073705176664556,0.27661898053723505,-0.03547622680664063,0.889749755859375,997.7165222167969,132.72317504882812,49.2587103970444,0.0,24.216039268698314
1557947622722,8.40457260131836,-7.073705176664556,0.12889422380794455,0.21420455932617188,1.009500732421875,997.7165222167969,131.63819885253906,49.258707629684615,0.0,27.737864449811937
1557947622789,9.092242584228517,-7.073705176664556,0.2911142069677579,0.8370593261718751,0.24025039672851564,997.7165222167969,130.40130615234375,,0.0,25.61101383649056
1557947622862,9.174421691894532,-7.073705176664556,0.2882507776028047,1.701661376953125,-0.038020935058593754,997.7165222167969,130.40130615234375,49.258707737180636,0.0,24.99687082618404
1557947622923,8.570577392578125,-7.073705176664556,0.409857562019067,-0.08427474975585938,0.30132339477539066,997.7165222167969,130.40130615234375,49.25870764363175,0.0,27.09269960975831
1557947622990,8.132588195800782,-7.073705176664556,0.695480313066696,2.9160859680175784,-0.49831375122070315,997.7165222167969,130.40130615234375,49.25871032866998,0.0,31.889284837608535
1557947623059,10.779384155273439,-7.073705176664556,0.9410128935909939,-0.5385800170898438,-0.06316864013671876,997.7165222167969,128.06268310546875,49.258711364165805,0.0,31.51982395457474
1557947623123,12.609628143310548,-7.073705176664556,1.2507312294909123,-3.800446929931641,1.6913328552246094,997.7165222167969,125.5966567993164,49.25871180894188,0.0,31.322596895310447
1557947623189,12.507839813232422,-7.073705176664556,0.4610190500454523,-4.089795227050781,0.012274475097656251,997.7165222167969,123.03443145751953,49.258709109208034,0.0,30.484418035504042
1557947623260,9.97570541381836,-7.073705176664556,0.8766721530496612,-1.4132112121582032,-0.6631210327148438,997.7165222167969,123.03443145751953,49.2587092158563,0.0,30.253058652647702
1557947623323,5.245990905761719,-7.073705176664556,1.378520264678107,-1.8241067504882813,0.9810598754882813,997.75634765625,121.82861328125,49.25870697617541,0.0,31.274287778515987
1557947623390,8.749904479980469,-7.073705176664556,0.6601120496394034,-1.6688795471191407,-0.8578660583496094,997.75634765625,121.82861328125,49.258706584950765,0.0,28.407332346118068
1557947623463,8.76143051147461,-7.073705176664556,0.4462556183337436,-0.5513035583496094,-1.7167799377441406,997.75634765625,121.82861328125,49.25870837054826,0.0,27.543483357110187
1557947623523,8.099207611083985,-7.073705176664556,0.6684192690908612,1.264270935058594,-2.9687763977050783,997.75634765625,122.90432739257812,49.258710385255526,0.0,35.07045872427326
1557947623590,8.206085357666016,-7.073705176664556,1.0341898766191429,-3.2132180786132816,-1.2850776672363282,997.75634765625,120.9561538696289,49.25870621360201,0.0,32.29681842317676
1557947623659,14.734309844970705,-7.073705176664556,1.7760364405219204,-2.412084045410156,1.1509565734863283,997.75634765625,119.72811889648438,,,29.459607035775687
1557947623723,11.359278259277344,-7.073705176664556,1.6835874407702192,3.5682797241210937,3.9302270507812502,997.75634765625,121.65492248535156,58.29744572680221,0.0,33.16599302093861
1557947623790,12.55035140991211,-7.073705176664556,0.9372815411919952,0.10792556762695313,-0.1191522216796875,997.75634765625,123.18630981445312,58.29745373929911,0.0,28.43855422623161
1557947623860,11.200308837890626,-7.073705176664556,0.2718642187571141,0.4260140991210938,1.1319461059570313,997.75634765625,123.18630981445312,58.29745367125842,0.0,29.745116927373285
1557947623923,5.8493861389160156,-7.073705176664556,1.4056784012698873,0.6988966369628906,0.5598358154296875,997.75634765625,123.18630981445312,58.29745160716728,0.0,26.78518379040114
1557947623989,6.898255004882813,-7.073705176664556,0.1859872889488728,0.0461041259765625,0.5569917297363282,997.75634765625,123.18630981445312,58.29745349518057,0.0,24.653828514484182
1557947624060,7.994874572753907,-7.073705176664556,0.4357718484394096,0.7952961730957032,-0.678988037109375,997.75634765625,124.35175323486328,58.297451541457804,0.0,29.06335041805091
1557947624122,8.314160614013673,-7.073705176664556,0.21939272335032173,1.0279124450683594,-0.899180145263672,997.75634765625,125.71995544433594,58.297452253944314,0.0,29.547247909790627
1557947624189,12.779973907470703,-7.073705176664556,1.2223812135899672,0.6771917724609375,0.8485853576660156,997.75634765625,125.71995544433594,58.29745474118569,0.0,30.086001717619176
1557947624259,10.77654006958008,-7.073705176664556,0.9007286906070424,-3.9772293090820314,0.08532257080078126,997.75634765625,121.53327941894531,58.29745198715137,0.0,32.113875529368585
1557947624322,11.716435546875001,-7.073705176664556,0.5537384579669554,-3.8070332336425783,1.445244598388672,997.7840423583984,118.7407455444336,58.29745370270859,0.0,30.557604646877348
1557947624389,11.667337646484375,-7.073705176664556,0.4226192372235443,-1.8941610717773438,-0.12214599609375,997.7840423583984,118.7407455444336,58.29745342210804,0.0,29.206450014067876
1557947624464,5.875132598876953,-7.073705176664556,1.5406984088855122,-0.10553054809570313,0.55803955078125,997.7840423583984,121.36442565917969,58.29745423676957,0.0,28.155777483242673
1557947624522,4.959636383056641,-7.073705176664556,0.8148562496413472,-0.008532257080078126,-1.718426513671875,997.7840423583984,122.44631958007812,58.29745204973758,0.0,26.93726948923647
1557947624589,6.195765838623047,-7.073705176664556,0.6159936474615504,-0.45520339965820317,-3.5377432250976564,997.7840423583984,122.44631958007812,58.297451411939974,0.0,30.788191830988488
1557947624659,9.357191619873047,-7.073705176664556,1.3067913078073388,-2.622247009277344,0.4086502075195313,997.7840423583984,122.44631958007812,58.29745259451333,,33.649260337899754
1557947624722,17.03577392578125,-7.073705176664556,2.47656368914378,-0.08966354370117188,4.6367578125,997.7840423583984,122.44631958007812,58.2974494565011,,34.629966120280564
1557947624789,12.162657623291016,-7.073705176664556,1.6457333671728946,1.973346405029297,2.1709355163574218,997.7840423583984,126.75965118408203,58.29744981332851,252.6318359375,36.55138434811382
1557947624859,12.109069061279298,-7.073705176664556,0.8610662167835522,-0.9166937255859375,1.3955479431152344,997.7840423583984,126.75965118408203,58.29745126047297,,28.23474229170301
1557947624923,6.727460174560547,-7.073705176664556,1.4620294670766079,1.3898597717285157,0.950673065185547,997.7840423583984,125.56474304199219,58.29745200433986,0.0,27.649229846498887
1557947624989,6.905440063476563,-7.073705176664556,0.4527582927533675,-0.04415817260742188,0.30835876464843753,997.7840423583984,125.56474304199219,58.297453459298545,0.0,27.795964912578242
1557947625062,7.722590789794922,-7.073705176664556,0.3817263551678924,1.0939251708984377,-0.6288423156738282,997.7840423583984,124.47500610351562,58.29745244662681,0.0,27.67897616018091
1557947625122,8.740474090576173,-7.073705176664556,0.36995869117901875,1.5175442504882812,0.07514373779296875,997.7840423583984,124.47500610351562,58.29745073104799,0.0,29.206450014067876
1557947625189,9.670639801025391,-7.073705176664556,0.4177511189679051,0.8276289367675782,0.1686991882324219,997.7840423583984,124.47500610351562,58.29745142162291,0.0,27.9309160017658
1557947625259,11.982432403564454,-7.073705176664556,1.123226003228336,-2.454595642089844,1.0701246643066407,997.7840423583984,122.21128845214844,58.29744969140103,0.0,31.55336037465062
1557947625323,14.548995208740235,-7.073705176664556,0.9126287153145115,-3.114273834228516,0.08068222045898438,997.7951049804688,118.83985137939453,58.297453671706506,0.0,31.726029312098596
1557947625389,10.1405126953125,-7.073705176664556,0.9350565583612785,-2.029329986572266,-0.4704716491699219,997.7951049804688,118.83985137939453,58.29745140988065,0.0,31.152775913959015
1557947625462,5.586682434082031,-7.073705176664556,1.5438495479495447,0.365240478515625,1.0488688659667968,997.7951049804688,118.83985137939453,58.29745423515821,0.0,28.60936620700094
1557947625523,6.994804229736329,-7.073705176664556,0.8350167370490522,-2.50279541015625,-1.36755615234375,997.7951049804688,36.24431610107422,58.29745278072383,0.0,29.943171526696368
1557947625589,6.3053379821777344,-7.073705176664556,0.5556363571125689,-0.4165837097167969,-2.122136993408203,997.7951049804688,32.9345703125,58.29745086883407,0.0,27.649229846498887
1557947625659,9.25240951538086,-7.073705176664556,0.840410457534601,-2.658022613525391,-0.7294331359863282,997.7951049804688,35.6435661315918,58.29745142462949,0.0,30.644579892269185
1557947625723,12.172986145019532,-7.073705176664556,0.9567962549068455,-1.9751426696777346,0.08008346557617188,997.7951049804688,37.075626373291016,58.29745130043766,0.0,35.43819805142658
1557947625790,13.230686645507813,-7.073705176664556,1.9395123026662282,3.550616455078125,4.785548400878906,997.7951049804688,43.00090789794922,58.29745251421598,,34.912215762392826
1557947625861,11.835887145996095,-7.073705176664556,0.5132648027948057,1.2904664611816408,1.9037411499023438,997.7951049804688,45.1240119934082,58.29745246653425,87.64790852864584,33.44981413927258
1557947625922,9.828561401367187,-7.073705176664556,0.7274176349443042,-0.17199234008789063,1.4979350280761718,997.7951049804688,42.413047790527344,58.29745191030516,87.64790852864584,28.825245379548804
1557947625989,6.581813049316406,-7.073705176664556,0.999674638288202,0.5399272155761718,0.5072950744628907,997.7951049804688,42.413047790527344,58.29745142390498,0.0,26.414741105040992
1557947626062,6.265520782470704,-7.073705176664556,0.34062824396395874,0.40775207519531254,0.50055908203125,997.7951049804688,40.69865798950195,58.29745287183743,0.0,28.162412999917834
1557947626123,8.038284301757812,-7.073705176664556,0.5745470791543023,1.976938934326172,-0.43005569458007814,997.7951049804688,42.400718688964844,58.29745306956638,0.0,36.29919035503542
1557947626190,9.842332763671875,-7.073705176664556,0.7806268181755638,3.450025634765625,1.0443782043457033,997.7951049804688,43.40621566772461,58.297449860672515,0.0,30.170333392987803
1557947626258,12.268936614990235,-7.073705176664556,0.9839406769102542,0.43080413818359375,0.3351530456542969,997.7951049804688,45.01099395751953,58.29744741979451,0.0,26.180480967120925
1557947626323,12.148586883544922,-7.073705176664556,1.1175324947780523,-2.4269032287597656,3.1490016174316406,997.8040313720703,45.01099395751953,58.29745205686383,0.0,30.629578340845104
1557947626390,14.130764923095704,-7.073705176664556,0.7602165763981379,-2.2782623291015627,0.4327500915527344,997.8040313720703,42.084102630615234,56.91045159389459,0.0,30.39414119176137
1557947626462,9.175918579101562,-7.073705176664556,1.1694302528873644,-1.2710069274902345,-0.3457809448242188,997.8040313720703,36.01930236816406,56.91045306118832,0.0,27.61927838420529
1557947626523,6.434669036865235,-7.073705176664556,1.0246848229121763,-0.11256591796875001,0.35326538085937503,997.8040313720703,36.01930236816406,56.91046949502387,0.0,29.614210940664485
1557947626590,5.901328125,-7.073705176664556,1.0157479951476232,-1.2995974731445312,-3.4230816650390627,997.8040313720703,36.01930236816406,56.91048232831307,0.0,29.253120914996494
1557947626664,6.626120910644532,-7.073705176664556,0.7342866778842815,-0.55803955078125,0.3649411010742188,997.8040313720703,36.01930236816406,56.91049479600791,0.0,34.25860145077841
1557947626723,10.200088806152344,-7.073705176664556,1.2650458962166815,-4.046984252929688,0.6132746887207031,997.8040313720703,36.01930236816406,56.91050736948876,,34.73924693416157
1557947626789,15.05464370727539,-7.073705176664556,2.5670474652319903,3.3412019348144533,5.780529327392578,997.8040313720703,39.22069549560547,56.910516720941075,213.61328125,37.18335578908507
1557947626862,13.668675842285158,-7.073705176664556,1.3486533611302463,2.6182054138183597,-0.7313790893554688,997.8040313720703,40.93562316894531,56.910521248528894,213.61328125,33.60025089189398
1557947626922,9.657467193603516,-7.073705176664556,1.2714772040780196,-0.26000930786132814,0.6319857788085937,997.8040313720703,38.81265640258789,56.91052158851612,,26.08526033577194
1557947626990,5.7594232177734375,-7.073705176664556,1.2250530788930802,0.5029541015625,0.43304946899414065,997.8040313720703,38.81265640258789,56.91052414423652,0.0,28.536982117761745
1557947627060,6.181695098876953,-7.073705176664556,0.38916907291289654,1.5979270935058594,-0.2820135498046875,997.8040313720703,37.420875549316406,56.910522532044595,0.0,28.60936620700094
1557947627123,9.092092895507813,-7.073705176664556,0.7076853309305153,2.0447479248046876,-0.47990203857421876,997.8040313720703,38.4434928894043,56.91052124316972,0.0,26.444385894678387
1557947627190,7.446864166259766,-7.073705176664556,0.35561658299381893,2.665207672119141,0.2859054565429688,997.8040313720703,38.4434928894043,56.910524401030614,0.0,31.05510184769974
1557947627260,14.529385986328126,-7.073705176664556,1.9935889581451762,-1.302591247558594,1.73159912109375,997.8040313720703,36.560482025146484,56.91052479391752,0.0,27.888751157754168
1557947627323,13.189073181152345,-7.073705176664556,0.7449663706647246,-3.1262489318847657,2.374512176513672,997.8224945068359,32.77969741821289,56.91052040377216,0.0,34.252080511386566
1557947627390,14.624887390136719,-7.073705176664556,1.2070655384166211,1.0894345092773439,-0.8120613098144531,997.8224945068359,28.76304054260254,56.91052665652415,0.0,27.05007959333336
1557947627459,6.0588006591796875,-7.073705176664556,2.0483060900228174,0.0401165771484375,0.26914031982421877,997.8224945068359,25.231300354003906,56.91052163559821,0.0,25.490032620257878
1557947627523,8.421038360595704,-7.073705176664556,0.5694231890076884,-2.075134735107422,0.8403524780273438,997.8224945068359,22.831012725830078,56.91052314045102,0.0,28.90421018800914
1557947627589,8.016729125976562,-7.073705176664556,0.8700639970145684,-1.2717553710937501,-2.779270477294922,997.8224945068359,15.995467185974121,56.91052346600842,0.0,30.182843084265308
1557947627661,8.645721130371093,-7.073705176664556,0.37558129810973223,-2.143093414306641,-0.7716453552246094,997.8224945068359,13.446361541748047,56.9105213494457,0.0,30.382226383687186
1557947627723,9.934091949462891,-7.073705176664556,1.3564964703040887,1.994901580810547,-4.5090733337402344,997.8224945068359,12.312362670898438,56.910522210280256,0.0,31.03461622094705
1557947627790,16.210090942382813,-7.073705176664556,2.290753752708973,-3.520379333496094,1.6112493896484377,997.8224945068359,11.027867317199707,56.91052337782966,0.0,36.34578022853888
1557947627861,8.77580062866211,-7.073705176664556,2.4231251826180342,2.8424391174316406,6.6717759704589845,997.8224945068359,12.817718505859375,56.91052345632014,,34.30558769522757
1557947627923,13.930481414794922,-7.073705176664556,1.2760509995205946,-0.001347198486328125,2.028431854248047,997.8224945068359,10.066473960876465,56.91052190403922,156.4990234375,28.337843746564786
1557947627989,9.109905853271485,-7.073705176664556,1.0697420796248611,0.7991880798339844,1.0533595275878906,997.8224945068359,7.0239338874816895,56.91052303231583,0.0,26.532125137753436
1557947628060,7.286098480224609,-7.073705176664556,0.7923499863020258,2.1974304199218753,1.469045104980469,997.8224945068359,7.0239338874816895,55.94527294856082,0.0,27.363965022766426
1557947628123,7.504344635009766,-7.073705176664556,0.45485215031942916,0.7255412292480469,0.18202148437500001,997.8224945068359,3.7747347354888916,55.945285925992216,0.0,28.976270912904415
1557947628190,10.771001586914062,-7.073705176664556,0.8983306541242901,2.1640498352050783,-0.719553680419922,997.8224945068359,359.0732421875,55.94529782772919,0.0,31.917303933628563
1557947628258,10.311008148193359,-7.073705176664556,0.3151919461626656,1.7139358520507812,-1.6227754211425782,997.8224945068359,356.6557922363281,55.945308791936874,0.0,27.708520116421443
1557947628323,13.093871154785157,-7.073705176664556,1.1540883021329718,1.5880476379394532,2.2960752868652343,997.8482055664062,356.46588134765625,55.945320301490376,0.0,32.71376871894075
1557947628389,7.4961117553710945,-7.073705176664556,1.7755345380571785,-1.7049545288085939,5.328768768310547,997.8482055664062,356.46588134765625,55.94533122683157,,32.833012287035494
1557947628459,8.251590728759766,-7.073705176664556,0.3875932115829255,0.0664617919921875,3.201093292236328,997.8482055664062,348.094482421875,55.945346706428126,0.0,28.45098040014257
1557947628523,12.958552551269532,-7.073705176664556,1.564225261633639,2.2273681640625003,-0.025297393798828127,997.8482055664062,335.5975646972656,55.94535626961712,0.0,29.79548374704095
1557947628590,7.404651947021485,-7.073705176664556,1.5963996623686458,-1.5365547180175783,4.220772857666016,997.8482055664062,324.4366455078125,55.94537001057929,,34.20945405921972
1557947628660,9.9297509765625,-7.073705176664556,0.42314183466645355,-1.76512939453125,2.5035438537597656,997.8482055664062,314.9237976074219,55.94538149800794,0.0,27.93790384690819
1557947628723,7.035669250488281,-7.073705176664556,0.9083972751938094,-3.5340010070800782,2.4623794555664062,997.8482055664062,297.5965576171875,55.9453893398394,0.0,33.236645356081
1557947628789,10.614127807617187,-7.073705176664556,0.9082557075408798,-1.8826350402832033,0.6503974914550782,997.8482055664062,289.0165100097656,55.945401743500305,0.0,28.241258339165487
1557947628860,10.263856201171876,-7.073705176664556,0.680022659200769,0.21151016235351563,-0.20312759399414063,997.8482055664062,282.3160400390625,55.94541003894964,0.0,27.634279935629372
1557947628924,10.816057891845704,-7.073705176664556,0.48280912382638275,1.0282118225097656,-0.7851173400878907,997.8482055664062,275.86676025390625,55.945419517326734,0.0,30.330214446829107
1557947628990,15.10149627685547,-7.073705176664556,2.2674615785583807,-6.121669921875,3.250640258789063,997.8482055664062,267.7145690917969,55.94542912660288,0.0,33.93224116361297
1557947629061,4.098177795410156,-7.073705176664556,2.895268070862353,2.0115170288085937,3.370690612792969,997.8482055664062,264.3809814453125,55.94544541975218,,32.180100429843634
1557947629122,9.698032836914063,-7.073705176664556,1.1028450692707674,-0.7349716186523438,6.112239532470704,997.8482055664062,261.23846435546875,55.945457330120384,0.0,32.69045709657623
1557947629190,10.180629272460939,-7.073705176664556,1.07534189745154,-0.4644841003417969,1.249152374267578,997.8482055664062,257.15509033203125,55.945466644841815,0.0,28.129133566428557
1557947629260,8.367898864746094,-7.073705176664556,0.516588259904545,0.6605763244628906,3.1269973754882816,997.8482055664062,255.30606079101562,55.945472581535654,0.0,24.683473304121573
1557947629323,8.249195709228516,-7.073705176664556,0.16236809878936725,-0.03667373657226563,3.0364356994628907,997.8812408447266,249.9688720703125,55.94549222833973,0.0,26.60865478003869
1557947629390,9.684560852050781,-7.073705176664556,0.6291124073624327,1.2493020629882814,1.2108320617675783,997.8812408447266,250.18165588378906,55.94550466275459,0.0,24.927603890268376
1557947629461,10.10892837524414,-7.073705176664556,0.4092068680544799,0.9633966064453126,0.20597167968750002,997.8812408447266,252.88934326171875,55.945514690675054,0.0,31.225435240687546
1557947629523,9.823022918701172,-7.073705176664556,0.3030726435096465,1.9667601013183595,-0.08457412719726563,997.8812408447266,254.5098876953125,55.94552907935618,,30.788191830988488
1557947629590,13.497282257080078,-7.073705176664556,1.1910087525751571,2.8217820739746093,2.9328511047363284,997.8812408447266,255.589111328125,55.94554680378546,0.0,30.507663112330423
1557947629662,7.747439117431641,-7.073705176664556,1.8771293139885936,-3.185226287841797,2.6033862304687503,997.8812408447266,251.56289672851562,55.94555569659323,0.0,31.598678470925666
1557947629723,5.45390853881836,-7.073705176664556,1.3349949711267894,-3.868704986572266,5.937852172851563,997.8812408447266,241.21536254882812,51.15264806173042,,33.23870606540509
1557947629790,15.040123901367188,-7.073705176664556,2.396801378685766,0.13636642456054687,3.090623016357422,997.8812408447266,242.6798095703125,51.15265359611349,127.32421875,40.973267357157724
1557947629861,6.466253356933594,-7.073705176664556,1.7440451010305682,-1.519490203857422,0.9166937255859375,997.8812408447266,245.0594482421875,51.15266548099666,71.33512369791666,28.965262174895553
1557947629923,8.443791046142579,-7.073705176664556,0.10239800525463226,-1.478774871826172,1.5982264709472658,997.8812408447266,239.509521484375,51.15267055721606,71.33512369791666,28.656960599160705
1557947629991,6.635700988769532,-7.073705176664556,0.5289175350423043,-0.8101153564453125,0.5254074096679687,997.8812408447266,239.509521484375,51.152683488553095,0.0,30.909630765957317
1557947630061,7.57589584350586,-7.073705176664556,0.3896827941089981,0.19294876098632813,-0.11331436157226563,997.8812408447266,241.7855987548828,51.15269406194388,0.0,26.13841821876069
1557947630127,10.166408843994141,-7.073705176664556,0.8667152109084529,-2.24173828125,0.2860551452636719,997.8812408447266,241.7855987548828,51.15270669179085,0.0,29.661417327390325
1557947630190,8.201594696044923,-7.073705176664556,0.46313118618180843,-1.1518547058105468,-0.9710307312011719,997.8812408447266,240.38803100585938,51.15272547252741,0.0,31.532049000842846
1557947630262,10.684780883789063,-7.073705176664556,0.8136107804080568,-1.7404307556152345,1.7606387329101563,997.8812408447266,238.46861267089844,51.152735602943594,,34.39806211393331
1557947630323,10.174342346191407,-7.073705176664556,1.1671912408856522,0.6279441833496094,6.198609924316407,997.9203033447266,232.70445251464844,51.15274817414844,33.7158203125,32.28143607597742
1557947630391,15.96714614868164,-7.073705176664556,1.7320736979871116,2.2088067626953127,1.1859837341308594,997.9203033447266,237.18609619140625,51.15276065807336,33.7158203125,37.266457202409114
1557947630461,8.317304077148439,-7.073705176664556,1.5960237040799876,0.2125579833984375,2.0712428283691406,997.9203033447266,238.18698120117188,51.152769343116496,,30.0774777800074
1557947630523,4.713248748779297,-7.073705176664556,1.292058280491288,0.3956272888183594,1.7160314941406252,997.9203033447266,236.44935607910156,51.15277093319366,41.1279296875,29.268567089496923
1557947630590,8.353977813720704,-7.073705176664556,0.66342392956992,0.5063969421386719,0.5713618469238282,997.9203033447266,237.768310546875,51.15277127364192,0.0,31.146109842321728
1557947630662,6.871161346435548,-7.073705176664556,0.6524685205164819,2.076631622314453,-0.9918374633789063,997.9203033447266,240.1460723876953,51.15277170808184,0.0,31.082266563749283
1557947630723,17.337696075439453,-7.073705176664556,3.135950498441595,-0.31793884277343754,6.43541748046875,997.9203033447266,237.07672119140625,51.15277116358298,0.0,34.20780619548565
1557947630791,14.405294036865236,-7.073705176664556,1.3717718921214455,-4.672832794189453,2.0936961364746094,997.9203033447266,233.0303497314453,51.15277044360293,,30.41392685158225
1557947630861,9.43248504638672,-7.073705176664556,1.419594932324208,-1.537303161621094,1.01309326171875,997.9203033447266,230.85643005371094,51.15277316049635,,32.07365037469072
1557947630923,7.2196366882324226,-7.073705176664556,0.9630209822028396,-0.5667214965820313,2.2508692932128906,997.9203033447266,229.16696166992188,51.152773375797295,0.0,28.007170782823852
1557947630990,6.930737457275391,-7.073705176664556,0.7109968904222704,-1.1112890625,-0.5411247253417969,997.9203033447266,232.87489318847656,51.152771904595774,0.0,28.943160626844385
1557947631061,6.375092926025391,-7.073705176664556,0.603425299416304,-0.1770817565917969,-1.9724482727050783,997.9203033447266,235.04551696777344,51.15277273449467,0.0,32.853322276438846
1557947631123,6.576573944091797,-7.073705176664556,0.27962951612685566,-1.0365943908691406,-0.5336402893066406,997.9203033447266,231.39625549316406,51.15277115262331,,31.31297796597623
1557947631190,12.003538513183594,-7.073705176664556,1.619814376072349,-3.6036062622070313,1.4998809814453127,997.9203033447266,225.64447021484375,51.15277446057636,204.5654296875,33.780343224573315
1557947631262,11.880344696044922,-7.073705176664556,2.0150873806031924,4.915328521728516,2.3571482849121095,997.9203033447266,223.90733337402344,51.15277133952481,,34.07900540142635
1557947631322,15.624059600830078,-7.073705176664556,1.3769092276673156,-0.7741900634765625,1.9624191284179688,997.9544067382812,228.82379150390625,51.15277262611083,,31.316186643491257
1557947631390,8.479416961669923,-7.073705176664556,1.540391788629256,0.5599855041503906,1.5178436279296876,997.9544067382812,227.47747802734375,51.152769453004936,42.71484375,27.723217067229196
1557947631461,6.378236389160157,-7.073705176664556,0.9753337011178045,-0.41269180297851565,0.5120851135253907,997.9544067382812,229.6854248046875,51.15277139017482,0.0,27.109631189952758
1557947631523,6.064488830566407,-7.073705176664556,0.43951885157649445,1.0629396057128906,0.6677613830566407,997.9544067382812,229.6854248046875,51.15277184185169,0.0,26.884198220027105
1557947631590,7.738607482910156,-7.073705176664556,0.8128759994877559,3.637884979248047,0.10627899169921876,997.9544067382812,231.62667846679688,51.152774661588815,0.0,34.565178578052624
1557947631661,13.286969604492189,-7.073705176664556,1.432149999861226,-1.5443385314941407,1.1047027587890625,997.9544067382812,231.62667846679688,51.152773449738284,,27.860412102425542
1557947631725,14.505585479736329,-7.073705176664556,1.2962443230704794,-1.3442047119140625,3.9775286865234376,997.9544067382812,226.65328979492188,51.152768598582455,0.0,30.670708560453704
1557947631790,14.104868774414063,-7.073705176664556,1.162234598075021,-3.1985485839843752,-0.8355624389648438,997.9544067382812,225.5322723388672,51.152771872429675,0.0,28.767949762007007
1557947631861,8.962013397216797,-7.073705176664556,1.4532915179670298,-0.21061203002929688,1.8729052734375,997.9544067382812,224.37229919433594,57.50229099125052,0.0,25.211380837040362
1557947631923,5.134023742675781,-7.073705176664556,1.2893804561040763,0.077838134765625,1.340911560058594,997.9544067382812,224.37229919433594,57.50230219949139,0.0,28.50033257689769
1557947631989,7.684869232177735,-7.073705176664556,1.1524081064590632,-2.040556640625,-2.634521484375,997.9544067382812,226.14952087402344,57.50231739667353,0.0,29.894498176666918
1557947632062,7.003785552978516,-7.073705176664556,0.3436625671327067,-1.2924124145507814,-0.3362008666992188,997.9544067382812,226.14952087402344,57.502324282684995,0.0,30.762762554042176
1557947632125,7.939340057373047,-7.073705176664556,0.2923292851746491,-2.146685943603516,-0.8488847351074219,997.9544067382812,223.49172973632812,57.50232865882894,,31.085650237328345
1557947632190,12.624746704101563,-7.073705176664556,1.5038861120683695,-1.155596923828125,2.600691833496094,997.9544067382812,220.586181640625,57.50232819827488,0.0,34.23081958297231
1557947632262,11.229348449707032,-7.073705176664556,1.144330479322347,2.947670288085938,3.3043785095214844,997.9544067382812,220.88372802734375,57.50233104599466,0.0,35.64310909960603
1557947632323,16.98008972167969,-7.073705176664556,1.6475573778695958,2.944526824951172,-0.19878662109375,997.9782867431641,226.05052185058594,57.502329813779305,,32.60786668654976
1557947632390,9.033863983154298,-7.073705176664556,1.7675269827791729,-0.05957611083984375,0.5685177612304688,997.9782867431641,228.1765899658203,57.50232530161551,27.568359375,26.60865478003869
1557947632461,6.785988464355469,-7.073705176664556,0.9454522379800853,1.1079959106445314,1.0603948974609376,997.9782867431641,227.04122924804688,57.50233045401577,0.0,25.010592622177516
1557947632523,6.459068298339844,-7.073705176664556,0.44769810719941394,0.8324189758300782,-0.12244537353515626,997.9782867431641,227.04122924804688,57.50232779184537,0.0,26.75778341674085
1557947632590,7.960745544433594,-7.073705176664556,0.45179839238807135,2.143243103027344,-0.4734654235839844,997.9782867431641,227.04122924804688,57.502327803858215,0.0,27.795964912578242
1557947632661,11.094329223632814,-7.073705176664556,0.9042695669177285,0.9912387084960937,0.13965957641601562,997.9782867431641,227.04122924804688,57.50232831045422,0.0,28.926510338773003
1557947632723,13.297447814941407,-7.073705176664556,1.2193538605907697,-0.11091934204101563,3.8672080993652345,997.9782867431641,223.33096313476562,57.50232530754017,0.0,30.856472882968564
1557947632790,13.84276382446289,-7.073705176664556,1.2239485207724532,-4.033811645507813,0.9303153991699219,997.9782867431641,219.296875,57.50232781599953,0.0,27.788744720027395
1557947632860,10.638377380371095,-7.073705176664556,1.039064742008081,-0.03682342529296875,0.8189469909667969,997.9782867431641,219.296875,57.50232926540042,0.0,26.99837725867246
1557947632923,6.40188720703125,-7.073705176664556,1.2541982610664302,-0.16929794311523438,1.4723382568359376,997.9782867431641,217.2027130126953,57.502330580564156,0.0,29.375178920173468
1557947632990,8.044122161865236,-7.073705176664556,0.7184472426682542,-2.7794201660156252,-0.08217910766601563,997.9782867431641,218.57107543945312,57.5023275406587,0.0,31.024337056813366
1557947633060,6.563850402832031,-7.073705176664556,0.8892071369959291,-0.09235794067382813,-2.265239410400391,997.9782867431641,218.57107543945312,57.50232960291361,0.0,31.231980750319988
1557947633125,8.212072906494141,-7.073705176664556,0.38940863880114174,-1.5748750305175783,-0.920885009765625,997.9782867431641,219.4300079345703,57.50233055262336,0.0,32.34264124378789
1557947633189,7.943381652832032,-7.073705176664556,0.035515076502265604,-0.9753717041015626,-0.9684860229492188,997.9782867431641,217.67849731445312,57.502329982657436,0.0,35.259513412480125
1557947633261,12.282857666015625,-7.073705176664556,1.3433779680653066,-0.7906558227539063,2.146087188720703,997.9782867431641,216.6641082763672,57.50233162343009,,32.10318519826232
1557947633323,11.866573333740234,-7.073705176664556,1.6174600548043088,4.3983036804199225,4.7557603454589845,998.0010223388672,215.4588165283203,57.50233012588386,0.0,29.429995933660408
1557947633390,12.362641754150392,-7.073705176664556,1.2660868160502545,-0.316142578125,0.16540603637695314,998.0010223388672,219.61643981933594,57.50232965011991,0.0,32.40299582002712
1557947633461,10.18497024536133,-7.073705176664556,0.48718935328385227,1.0255174255371093,1.4335688781738283,998.0010223388672,220.711181640625,57.50233046449232,0.0,26.6838591669
1557947633523,8.247100067138673,-7.073705176664556,0.8019183461802993,2.211800537109375,0.1790277099609375,998.0010223388672,220.711181640625,57.502326692774176,0.0,28.66287339084195
1557947633590,5.5077964782714846,-7.073705176664556,0.918744257498546,0.7667056274414062,-0.5691165161132813,998.0010223388672,222.2939453125,57.502328861440176,0.0,27.589118923979736
1557947633660,7.6757382202148445,-7.073705176664556,0.7707356891970558,3.8001475524902344,-0.07319778442382813,998.0010223388672,220.85342407226562,57.5023272781132,0.0,25.76341350205793
1557947633723,8.381670227050781,-7.073705176664556,0.4706187406370863,1.5367044067382813,-0.08771759033203125,998.0010223388672,219.1652374267578,57.5023271374821,0.0,30.350292822023683
1557947633789,13.858181762695313,-7.073705176664556,1.5923909789879886,-0.09954299926757813,2.2519171142578127,998.0010223388672,217.96279907226562,57.50233189373471,0.0,28.463371121298053
1557947633860,11.407028961181641,-7.073705176664556,1.439727671518022,-4.800367584228516,2.3126907348632812,998.0010223388672,209.7508544921875,57.50232851449924,0.0,27.75974331129369
1557947633923,13.09836181640625,-7.073705176664556,1.7170000474418976,2.5463548278808594,-0.9852511596679688,998.0010223388672,209.7508544921875,57.502330126656595,0.0,31.442627737619908
1557947633990,6.678362274169922,-7.073705176664556,1.590854440025482,-0.31329849243164065,1.166224822998047,998.0010223388672,207.09063720703125,57.5023297873795,0.0,27.24275869600789
1557947634061,9.159303131103517,-7.073705176664556,0.7068939598645235,-2.527793426513672,0.10463241577148438,998.0010223388672,202.89053344726562,57.50232965996357,0.0,27.558748556724915
1557947634125,6.455775146484375,-7.073705176664556,1.0256168950522822,-0.0987945556640625,-2.4661216735839844,998.0010223388672,202.89053344726562,57.502329388729805,0.0,29.390197764486665
1557947634190,9.790540466308594,-7.073705176664556,0.7249554597737636,-1.057401123046875,-0.7858657836914062,998.0010223388672,201.2606964111328,57.502331029805056,0.0,27.14329759745233
1557947634261,9.296118621826173,-7.073705176664556,0.5302947365485638,-0.29653335571289063,-3.143612823486328,998.0010223388672,201.2606964111328,57.502328380725395,0.0,38.000981801747756
1557947634323,15.264207916259766,-7.073705176664556,1.7281792634357496,-0.76880126953125,0.7626640319824219,998.0332183837891,205.97589111328125,57.50233114776098,,40.499541480220465
1557947634389,9.124575347900391,-7.073705176664556,1.9956770012218545,1.9034417724609376,5.890251159667969,998.0332183837891,198.77114868164062,57.50232935412896,,38.85134966063434
1557947634461,14.544803924560547,-7.073705176664556,1.263996946475315,2.8527676391601564,4.273762664794922,998.0332183837891,200.67474365234375,57.50232963334226,28.759765625,34.58939861890326
1557947634523,10.016271057128908,-7.073705176664556,1.3377607257493747,0.17917739868164062,1.679956512451172,998.0332183837891,199.33560180664062,51.496414113053866,,26.294095991027188
1557947634590,6.9623217773437505,-7.073705176664556,1.0603973265827835,2.344574432373047,1.4940431213378906,998.0332183837891,196.935791015625,51.496425840038874,0.0,25.19827993775719
1557947634660,7.11126205444336,-7.073705176664556,0.3623763934878376,0.830922088623047,1.4865586853027344,998.0332183837891,191.15907287597656,51.4964420627585,0.0,26.148972160331347
1557947634723,10.141111450195313,-7.073705176664556,0.747420400423341,0.21016296386718752,1.1654763793945313,998.0332183837891,183.98324584960938,51.4964492277483,0.0,26.9284691927723
1557947634789,11.738290100097657,-7.073705176664556,0.8182366769388869,0.9728269958496094,-1.0042616271972657,998.0332183837891,181.5823974609375,51.4964599560401,0.0,27.82472624166286
1557947634861,11.014395446777344,-7.073705176664556,0.7787883712833454,3.599864044189453,-1.8739530944824219,998.0332183837891,181.5823974609375,51.49646694825594,0.0,27.37987326333431
1557947634923,12.657678222656251,-7.073705176664556,1.275055034981302,2.249671783447266,3.2804283142089847,998.0332183837891,176.3292236328125,51.4964726245289,0.0,34.85579476984679
1557947634990,5.757926330566407,-7.073705176664556,2.1790885143823613,-3.071462860107422,3.992198181152344,998.0332183837891,162.17349243164062,51.49648309298324,,32.826221128780624
1557947635059,9.490564270019531,-7.073705176664556,0.9784109704390581,1.2689112854003908,4.949307861328125,998.0332183837891,155.43682861328125,51.496497993505045,0.0,29.84077033902831
1557947635124,11.87690185546875,-7.073705176664556,1.3234064950666458,-0.43604324340820316,0.27692413330078125,998.0332183837891,152.24783325195312,51.49650064067791,0.0,35.36179532137225
1557947635190,7.505392456054688,-7.073705176664556,1.1883266212493049,-1.7239649963378907,3.998185729980469,998.0332183837891,143.83834838867188,51.49650879626179,0.0,29.09020854211156
1557947635260,9.794582061767578,-7.073705176664556,0.5149542859967428,-0.018262023925781252,2.568658447265625,998.0332183837891,138.5310821533203,51.496523054708106,0.0,28.981764834976765
1557947635323,7.925868072509766,-7.073705176664556,0.7497450142615747,-2.740800476074219,2.751727752685547,998.0712127685547,128.0384521484375,51.496542827316595,0.0,25.751878449276614
1557947635390,9.437275085449219,-7.073705176664556,0.7100402503399363,-0.23680755615234375,1.1451187133789062,998.0712127685547,121.33152770996094,51.49655225270268,0.0,26.803355134145633
1557947635460,10.105335845947266,-7.073705176664556,0.36307876008362333,-0.6189628601074219,0.4571493530273438,998.0712127685547,115.19882202148438,51.49656615962591,0.0,24.14973347970818
1557947635523,10.968890075683595,-7.073705176664556,0.4553484161506556,-0.046403503417968756,-0.5888754272460938,998.0712127685547,109.71148681640625,51.49657629592649,0.0,29.106244048892012
1557947635590,13.520484008789063,-7.073705176664556,1.4170905426143638,-4.288731536865234,2.4614813232421877,998.0712127685547,101.33500671386719,51.49658272579306,0.0,35.77606677362536
1557947635660,5.6766453552246094,-7.073705176664556,2.2906103875124875,2.2195843505859374,3.490291900634766,998.0712127685547,98.59932708740234,51.49659635798311,,28.65103974641128
1557947635722,8.61967529296875,-7.073705176664556,1.0737794847327475,1.2374766540527344,6.711742858886719,998.0712127685547,94.43903350830078,51.49660265161438,333.7646484375,33.115419584011946
1557947635790,10.311606903076173,-7.073705176664556,1.7331869721697966,-3.334615631103516,3.595822448730469,998.0712127685547,92.9472885131836,51.49661960162995,0.0,24.563660331290432
1557947635861,8.913364562988281,-7.073705176664556,1.1268041441797858,2.285746765136719,2.519560546875,998.0712127685547,91.3370590209961,51.496629986130145,0.0,24.345689040341988
1557947635923,8.447383575439453,-7.073705176664556,0.4341633854324313,0.1490899658203125,1.7874330139160157,998.0712127685547,88.73531341552734,51.49662951206352,0.0,27.259116322950483
1557947635989,8.422385559082032,-7.073705176664556,0.05194076429814772,0.5742059326171876,2.11001220703125,998.0712127685547,87.6974868774414,51.496627334155164,0.0,26.483600109809316
1557947636061,7.797285461425782,-7.073705176664556,0.30838728423681994,-0.06376739501953126,1.3521382141113283,998.0712127685547,86.34722900390625,51.49662916778793,0.0,26.0959440922522
1557947636127,8.21776107788086,-7.073705176664556,0.30572101779846744,1.2864248657226562,1.4090199279785156,998.0712127685547,86.34722900390625,51.496630578060945,0.0,24.969296480732147
1557947636190,9.260941772460939,-7.073705176664556,0.4994974423136879,1.957778778076172,0.08547225952148438,998.0712127685547,84.84828186035156,51.496628661432126,0.0,25.899496013257078
1557947636260,9.75296859741211,-7.073705176664556,0.282626650139497,2.1107606506347656,-0.30551467895507817,998.0712127685547,84.84828186035156,44.301649814782884,0.0,35.0392680419351
1557947636324,10.129136352539064,-7.073705176664556,0.42743502660885185,0.6996450805664063,0.2528242492675781,998.1061553955078,81.697998046875,44.30166442738495,0.0,30.4883008652835
1557947636390,11.272608489990235,-7.073705176664556,1.3187924253503427,-2.1850062561035157,4.561614074707031,998.1061553955078,81.697998046875,44.301669534830836,0.0,30.681858617461618
1557947636460,15.90861785888672,-7.073705176664556,1.4407619728580892,-4.292174377441406,3.157533874511719,998.1061553955078,81.697998046875,44.30167089659384,0.0,38.674674878590515
1557947636523,10.00354751586914,-7.073705176664556,1.5311021612699154,-0.1790277099609375,1.191522216796875,998.1061553955078,79.96439361572266,44.30167187325419,0.0,31.981069988734014
1557947636590,7.17308349609375,-7.073705176664556,1.006913777689581,-1.5067666625976563,1.8315911865234376,998.1061553955078,78.36185455322266,44.30167156240577,,28.09559714635268
1557947636660,7.239245910644532,-7.073705176664556,0.5980727985287381,-2.0423529052734377,-0.3020718383789063,998.1061553955078,75.08988189697266,44.3016675867707,0.0,28.756399370041684
1557947636723,7.309000854492188,-7.073705176664556,0.3581515427617081,-0.48020141601562505,0.4896318054199219,998.1061553955078,72.39260864257812,44.30167180587074,0.0,27.715874808812554
1557947636790,7.62858627319336,-7.073705176664556,0.5054552091087118,0.118553466796875,-0.8887019348144531,998.1061553955078,70.47038269042969,44.30167399909224,0.0,31.547282074401558
1557947636862,9.405541076660157,-7.073705176664556,0.6226299861371929,-1.6434324645996095,-1.5832575988769533,998.1061553955078,68.5343017578125,44.30167481879041,0.0,32.56717745977487
1557947636923,10.223140869140625,-7.073705176664556,0.4842292825096472,-2.4662713623046875,-0.5966592407226563,998.1061553955078,71.31110382080078,44.30167289603833,,34.466924663715275
1557947636990,10.028695220947267,-7.073705176664556,2.0031832518583332,2.481389923095703,5.7260426330566405,998.1061553955078,75.31163024902344,44.30167313053402,,29.28907690243953
1557947637060,16.439713439941407,-7.073705176664556,1.619032976551191,1.363963623046875,3.4353561401367188,998.1061553955078,75.31163024902344,44.301674995396176,0.0,34.96376054012401
1557947637126,10.637329559326172,-7.073705176664556,1.2142579541061571,0.29907806396484377,1.3844709777832032,998.1061553955078,73.98262023925781,44.301671898486184,,28.45098040014257
1557947637190,8.025710449218751,-7.073705176664556,0.9391333500653012,0.869242401123047,2.762355651855469,998.1061553955078,73.98262023925781,44.30167397374465,0.0,23.76576957056512
1557947637260,6.691534881591798,-7.073705176664556,0.8324954097294361,0.47601013183593754,0.10148895263671875,998.1061553955078,73.98262023925781,44.30167407863039,0.0,28.273692730538254
1557947637323,6.133495330810547,-7.073705176664556,0.4117235053382018,0.2900967407226563,-0.47990203857421876,998.135986328125,72.51985931396484,45.565739732454915,0.0,26.963563887333322
1557947637390,7.262896728515625,-7.073705176664556,0.7623617272184487,3.035537567138672,0.9466314697265625,998.135986328125,73.7940444946289,45.56574668979378,0.0,29.400181550076635
1557947637461,14.087355194091797,-7.073705176664556,1.9128548206435685,-0.07694000244140625,2.422562255859375,998.135986328125,73.7940444946289,45.56575256515317,0.0,29.921114877869496
1557947637523,12.064461822509767,-7.073705176664556,1.3467891199756545,-4.6713359069824225,3.3522789001464846,998.135986328125,72.6599349975586,45.56575287631491,0.0,32.48953615495707
1557947637589,17.4691227722168,-7.073705176664556,1.6647925982775298,-1.0990145874023438,-0.2585124206542969,998.135986328125,66.57984161376953,45.56575375787092,,33.5237549500052
1557947637660,7.427853698730469,-7.073705176664556,2.2405660258783664,-1.0050100708007812,2.578388214111328,998.135986328125,62.44396209716797,45.56575140203154,0.0,30.257153839013405
1557947637723,7.453899536132813,-7.073705176664556,0.7421390820111449,-1.8374290466308594,0.1389111328125,998.135986328125,60.860137939453125,45.56575029728317,0.0,25.58708570533166
1557947637790,6.660249938964844,-7.073705176664556,0.5448295632330254,-1.3177098083496095,-1.0663824462890625,998.135986328125,55.95073699951172,45.56575069853643,0.0,33.62105319293773
1557947637860,9.217232666015626,-7.073705176664556,0.6659477226184867,-1.8146763610839844,-2.0519329833984377,998.135986328125,53.54603576660156,45.56575001688552,,30.54613054556888
1557947637923,8.10474609375,-7.073705176664556,0.34727971206898894,-1.0545570373535156,-0.4800517272949219,998.135986328125,53.54603576660156,45.56575240690522,,27.9309160017658
1557947637990,7.747439117431641,-7.073705176664556,0.3078033735613213,-1.7205221557617187,-1.891766052246094,998.135986328125,53.54603576660156,45.56575054165521,0.0,26.0959440922522
1557947638060,12.173584899902345,-7.073705176664556,1.6006837407126044,0.019010467529296877,1.8405725097656251,998.135986328125,53.54603576660156,48.696047953927234,0.0,33.619166186686435
1557947638125,12.844190368652344,-7.073705176664556,1.3892799920688212,4.492607574462891,3.7161721801757817,998.135986328125,58.25700378417969,48.69605522750518,,32.82395504742526
1557947638190,14.275813293457032,-7.073705176664556,1.2310826338249583,0.17124389648437502,-0.12379257202148439,998.135986328125,56.637386322021484,48.69606034046994,,30.425755124401906
1557947638259,8.327333221435547,-7.073705176664556,1.3805369691341132,0.3035687255859375,0.8954379272460938,998.135986328125,55.36312484741211,48.69606834165328,0.0,26.90196080028514
1557947638324,7.005581817626953,-7.073705176664556,0.7981519051834672,2.0610639953613283,0.22004241943359376,998.1619262695312,55.36312484741211,48.69608483040453,0.0,29.365137424788934
1557947638390,7.095544738769531,-7.073705176664556,0.3539062393988993,0.379610595703125,0.23665786743164063,998.1619262695312,55.36312484741211,48.69610021253503,0.0,27.015679850559273
1557947638459,7.2019734191894536,-7.073705176664556,0.38687868009275794,1.6372952270507812,-0.959055633544922,998.1619262695312,56.45228576660156,48.696112059478494,0.0,25.490032620257878
1557947638523,7.978558502197266,-7.073705176664556,0.40310717806138274,1.9357745361328127,0.6632707214355469,998.1619262695312,54.785850524902344,48.69612251459978,0.0,26.37489729512511
1557947638590,15.545473022460937,-7.073705176664556,2.1356294674590868,-1.1558963012695314,2.341131591796875,998.1619262695312,54.785850524902344,48.69612885067097,0.0,28.715729355458784
1557947638660,13.80294662475586,-7.073705176664556,1.0971531836187018,-4.7900390625,2.1415965270996096,998.1619262695312,51.360572814941406,48.69613056291586,0.0,32.52610340567373
1557947638723,14.982793121337892,-7.073705176664556,0.8676791171540549,-1.2760963439941406,-0.0963995361328125,998.1619262695312,46.27303695678711,48.69612714525479,,28.09559714635268
1557947638790,6.81906967163086,-7.073705176664556,2.00143518696441,-0.6014492797851563,1.2988490295410158,998.1619262695312,46.27303695678711,48.696128258575314,0.0,28.893017025063102
1557947638860,7.8130027770996096,-7.073705176664556,0.4447982573234232,-2.1212388610839845,0.1993853759765625,998.1619262695312,46.27303695678711,48.69612608779868,0.0,26.82145076373832
1557947638923,6.6032185363769536,-7.073705176664556,0.9028189280183608,-0.028740234375,-2.3574476623535157,998.1619262695312,39.70402908325195,54.28376048507906,0.0,31.607685618611278
1557947638990,7.903265075683594,-7.073705176664556,0.30003455602901163,-0.21749771118164063,-0.959205322265625,998.1619262695312,39.70402908325195,54.283776009450094,0.0,28.915374576725643
1557947639061,9.110504608154297,-7.073705176664556,0.4368103059756821,-1.265618133544922,-1.0448272705078125,998.1619262695312,42.69650650024414,54.28378320451089,0.0,25.646660642520892
1557947639125,12.525054016113282,-7.073705176664556,1.3422397518824702,-0.8192463684082032,1.9368223571777345,998.1619262695312,44.8998908996582,54.28379300813299,0.0,34.862887609605664
1557947639190,12.427756347656251,-7.073705176664556,1.6218346249568232,4.785847778320313,4.855902099609375,998.1619262695312,49.265132904052734,54.28380093625801,0.0,35.14547752660286
1557947639259,13.862073669433595,-7.073705176664556,1.5753871640426274,-1.0756631469726563,-0.05957611083984375,998.1619262695312,49.265132904052734,54.28381612043854,,26.919651027673606
1557947639323,7.889044647216798,-7.073705176664556,1.421540264493093,1.1740086364746094,1.3051359558105469,998.1838226318359,49.265132904052734,54.28383050904383,,27.81755374652469
1557947639389,8.123606872558595,-7.073705176664556,0.2936324360786609,0.880019989013672,1.0147398376464845,998.1838226318359,49.265132904052734,54.283837697647584,0.0,28.64511081058392
1557947639460,5.053042144775391,-7.073705176664556,0.9058314023907834,1.039288787841797,-0.2812651062011719,998.1838226318359,49.265132904052734,54.28384644119118,0.0,28.920946026904804
1557947639523,8.154891815185547,-7.073705176664556,0.6449477534915145,2.2074595642089845,-0.22887405395507815,998.1838226318359,50.35870361328125,54.283855906461056,0.0,27.226339225338123
1557947639590,9.545350341796876,-7.073705176664556,0.4929248803814442,1.7907261657714844,0.0628692626953125,998.1838226318359,50.35870361328125,53.612121913942694,0.0,28.779469516291883
1557947639660,14.681320037841797,-7.073705176664556,1.5078979741816871,1.171014862060547,2.08606201171875,998.1838226318359,50.35870361328125,53.61212199897197,0.0,31.87238619831479
1557947639723,12.412488098144532,-7.073705176664556,1.6290162108629358,-5.093158721923828,3.240611114501953,998.1838226318359,49.31315612792969,53.61212296716447,0.0,28.90421018800914
1557947639790,14.278208312988282,-7.073705176664556,1.256876828917407,0.22662872314453125,-0.3074606323242188,998.1838226318359,43.59886932373047,53.61211997712903,0.0,30.21189299069938
1557947639859,7.506140899658203,-7.073705176664556,1.6137785101456257,-0.1395098876953125,1.4480886840820313,998.1838226318359,43.59886932373047,53.61212053744892,0.0,25.58708570533166
1557947639923,4.855902099609375,-7.073705176664556,1.1068580180528609,-0.5972579956054688,-0.026943969726562503,998.1838226318359,43.59886932373047,53.612122603195466,0.0,27.193312869837264
1557947639990,7.922425231933594,-7.073705176664556,1.1046028856393746,-0.5129832458496094,-3.6555482482910158,998.1838226318359,40.49189376831055,53.612118436186705,0.0,33.14499227973152
1557947640062,9.364226989746093,-7.073705176664556,0.8207382579552556,-1.4266831970214844,-0.188009033203125,998.1838226318359,38.538970947265625,53.61212184506693,0.0,32.24791956492681
1557947640124,8.414302368164062,-7.073705176664556,0.1628365432506822,-0.948278045654297,-1.191372528076172,998.1838226318359,38.538970947265625,53.61211984087474,,28.356905714924252
1557947640190,11.320508880615234,-7.073705176664556,1.0474281719444087,-0.08232879638671875,1.8886225891113282,998.1838226318359,39.67243576049805,53.61211883210629,0.0,31.720188094245565
1557947640260,13.27559326171875,-7.073705176664556,1.5247771884524852,4.045337677001953,4.482428741455078,998.1838226318359,42.961883544921875,53.61212247883445,0.0,26.493348587121417
1557947640323,13.562845916748048,-7.073705176664556,1.4126646407474297,0.40850051879882815,-1.306333465576172,998.2027435302734,44.58037567138672,53.612120125055505,0.0,30.289777052087782
1557947640390,9.52065170288086,-7.073705176664556,0.9830883947648937,1.43701171875,0.8458909606933595,998.2027435302734,42.39187240600586,54.32398196625661,,26.963563887333322
1557947640460,7.763755187988282,-7.073705176664556,0.690969694021793,0.7933502197265625,0.5295986938476562,998.2027435302734,42.39187240600586,54.323990521600194,0.0,25.14547752660286
1557947640523,6.085894317626954,-7.073705176664556,0.6350814645431619,1.7444723510742188,-0.26539810180664064,998.2027435302734,40.70520782470703,54.32399924622692,0.0,28.356905714924252
1557947640590,7.899822235107422,-7.073705176664556,0.5686363939296156,2.8828550720214845,-1.137783966064453,998.2027435302734,40.70520782470703,54.32400311246638,0.0,23.856062735983123
1557947640660,9.486372985839845,-7.073705176664556,0.48356275759369355,2.1975801086425784,-0.5948629760742188,998.2027435302734,39.59251403808594,54.32400343975992,0.0,28.055008581584
1557947640723,12.77548324584961,-7.073705176664556,1.338166999485736,-0.0736468505859375,2.337389373779297,998.2027435302734,37.96168518066406,54.32400483541677,0.0,25.95496221825574
1557947640790,10.057585144042969,-7.073705176664556,1.3777035422207407,-4.649331665039063,2.3412812805175784,998.2027435302734,33.5147590637207,54.3240028860067,0.0,27.458551951737288
1557947640860,14.621893615722657,-7.073705176664556,1.5877478300259171,1.0084529113769531,0.08232879638671875,998.2027435302734,30.970186233520508,54.32400251798797,0.0,29.768083373380662
1557947640924,6.2632754516601565,-7.073705176664556,1.8325401262846064,-0.21420455932617188,0.5263055419921875,998.2027435302734,26.12091636657715,55.426613767115455,0.0,28.836614351536177
1557947640990,8.90992172241211,-7.073705176664556,0.33189129876592666,-1.227447509765625,0.47376480102539065,998.2027435302734,26.300291061401367,55.426628393878914,0.0,25.943925503754265
1557947641062,7.963589630126953,-7.073705176664556,0.8800447695361113,-1.41066650390625,-2.920576629638672,998.2027435302734,22.899959564208984,55.42663863274526,0.0,30.79181246047625
1557947641123,8.779093780517579,-7.073705176664556,0.33995243988993,-0.8014334106445313,-0.9701325988769531,998.2027435302734,22.899959564208984,55.42664852040989,0.0,28.69818207979328
1557947641190,11.156150665283203,-7.073705176664556,0.7684262555346686,-0.029189300537109376,-2.7343638610839847,998.2027435302734,22.899959564208984,55.426665395670675,,43.42738416555417
1557947641260,10.186167755126954,-7.073705176664556,1.6224946848083042,0.4831951904296875,4.077371063232422,998.2027435302734,22.899959564208984,55.42668594690245,,35.018804937550584
1557947641323,15.855628051757813,-7.073705176664556,1.615272136956586,0.6722520446777344,6.34919677734375,998.2250213623047,22.899959564208984,55.42669904006758,711.220703125,30.881360887005513
1557947641390,9.734407196044922,-7.073705176664556,1.5273419480153594,1.0157876586914063,1.0391390991210938,998.2250213623047,19.182580947875977,55.42670635532025,0.0,27.701152947871016
1557947641460,9.00287841796875,-7.073705176664556,0.5662687353389392,2.108964385986328,2.1631517028808593,998.2250213623047,17.604488372802734,49.75962247335434,0.0,25.76341350205793
1557947641523,6.046226806640625,-7.073705176664556,1.0585465460688004,0.017064514160156252,0.41344024658203127,998.2250213623047,13.994002342224121,49.75962539480254,0.0,26.646419755561258
1557947641590,9.58726318359375,-7.073705176664556,0.8209452253760179,2.2911355590820315,1.3439053344726564,998.2250213623047,12.636321067810059,49.75963283700849,0.0,27.611758131557313
1557947641661,12.046050109863282,-7.073705176664556,1.0475452129131881,0.9095086669921876,-1.4103671264648439,998.2250213623047,8.733692169189453,49.75963983063856,0.0,28.350561017201162
1557947641723,10.82309326171875,-7.073705176664556,0.40784873855469744,2.649939422607422,-1.1888278198242188,998.2250213623047,3.6655468940734863,49.7596456494283,0.0,27.38780558484369
1557947641790,11.591445465087892,-7.073705176664556,0.7969724421086608,2.6129663085937502,2.0206480407714844,998.2250213623047,0.5512306094169617,49.759658003114474,0.0,29.42008053022313
1557947641860,7.303013305664063,-7.073705176664556,1.6963203500052206,-2.8979736328125,3.6118391418457034,998.2250213623047,356.78289794921875,49.7596675975067,0.0,28.247764624755458
1557947641923,7.442822570800781,-7.073705176664556,0.47076365115849284,-0.8419990539550781,4.658462677001953,998.2250213623047,352.51409912109375,49.759673486090335,0.0,27.275412570285567
1557947641989,13.35792205810547,-7.073705176664556,1.6773374543543713,0.6623725891113281,1.063089294433594,998.2250213623047,348.0371398925781,46.37368137134262,0.0,33.53916230920363
1557947642060,7.438631286621094,-7.073705176664556,1.196775031736062,-1.2826826477050781,2.3977139282226565,998.2250213623047,341.7109069824219,46.37369077241824,,32.67406418752904
1557947642125,8.833580474853516,-7.073705176664556,0.329148959303228,-0.029788055419921876,3.6619848632812504,998.2250213623047,339.1268615722656,46.373704612409355,0.0,26.25312450961674
1557947642190,8.14591049194336,-7.073705176664556,0.6927676530340477,-2.7018814086914062,1.8556910705566407,998.2250213623047,326.9075927734375,46.37371491957269,0.0,31.007150865730818
1557947642261,9.270521850585938,-7.073705176664556,0.29362552927998403,-2.5626708984375,1.625170440673828,998.2250213623047,318.7564697265625,46.373724095158195,0.0,30.59941888061955
1557947642323,10.361602935791016,-7.073705176664556,0.8547607517869668,-0.4474195861816406,-0.14459930419921876,998.2532501220703,312.998046875,46.37373154741136,0.0,27.05007959333336
1557947642390,11.112890625,-7.073705176664556,0.46363253288458733,0.4164340209960938,0.3826043701171875,998.2532501220703,307.2259521484375,46.3737448519889,0.0,26.972293427597176
1557947642460,13.43366455078125,-7.073705176664556,1.0840885201993147,-3.3865576171875,0.00209564208984375,998.2532501220703,302.19488525390625,46.37375147571098,0.0,27.686381012476144
1557947642523,9.353299713134765,-7.073705176664556,1.2337422852366842,-2.629282379150391,3.642974395751953,998.2532501220703,298.4935302734375,46.3737623204218,0.0,31.88647295999717
1557947642590,4.293521575927735,-7.073705176664556,2.162205230594644,3.5940261840820313,3.933220825195313,998.2532501220703,300.42138671875,46.37377250836358,0.0,27.007037171450193
1557947642660,11.163036346435547,-7.073705176664556,1.548250274508352,-0.722098388671875,4.920417938232422,998.2532501220703,296.79345703125,46.373785840595296,0.0,31.760912590556813
1557947642723,9.4651171875,-7.073705176664556,0.5630936868294576,-0.223934326171875,2.3834934997558594,998.2532501220703,291.66766357421875,46.37379206189049,0.0,28.407332346118068
1557947642790,8.634344787597657,-7.073705176664556,0.3189123107887839,0.6517446899414063,3.2530352783203127,998.2532501220703,290.56884765625,46.37380366828014,0.0,24.771212547196626
1557947642860,8.862769775390625,-7.073705176664556,0.13939271558497673,0.0209564208984375,2.8120523071289063,998.2532501220703,290.56884765625,46.373822787052596,0.0,23.15970345456918
1557947642925,8.689729614257812,-7.073705176664556,0.5387417039842304,0.8589138793945313,0.8831634521484375,998.2532501220703,289.08624267578125,46.37383075183804,0.0,25.41579243946581
1557947642990,8.926836547851563,-7.073705176664556,0.27550881604437283,0.9975256347656251,0.3519181823730469,998.2532501220703,287.3148498535156,46.373838967470526,0.0,28.680563618230416
1557947643060,10.809022521972658,-7.073705176664556,0.5268099498028195,0.47062133789062505,-0.10582992553710938,998.2532501220703,287.3148498535156,46.37384963249121,0.0,29.849771264154935
1557947643123,10.761571197509767,-7.073705176664556,0.812783697259766,3.5354978942871096,-1.2145742797851564,998.2532501220703,285.708251953125,46.373860914624885,0.0,31.319392952104245
1557947643190,12.407398681640625,-7.073705176664556,0.5017303598387542,2.2814057922363284,-0.06616241455078126,998.2532501220703,287.6721496582031,34.21650633770744,0.0,27.693773260761386
1557947643259,9.282796325683595,-7.073705176664556,1.4711064571413492,-1.005908203125,3.6947666931152345,998.2532501220703,290.3870544433594,34.216508168659516,0.0,32.730012720637376
1557947643323,5.8103173828125,-7.073705176664556,1.4695900104097968,-3.7444633483886722,4.818479919433594,998.2808685302734,285.6484680175781,34.216507670813506,,34.59090789600587
1557947643390,11.636052703857423,-7.073705176664556,1.3327758588502299,-0.5828878784179687,3.692970428466797,998.2808685302734,283.765380859375,34.216507620298074,,29.041743682841634
1557947643460,9.568701782226563,-7.073705176664556,0.8952246006063662,-0.8601113891601563,0.38050872802734376,998.2808685302734,279.5740051269531,34.216507530035244,0.0,29.694159123539812
1557947643523,8.74227035522461,-7.073705176664556,0.5305230550028656,-1.9324813842773438,2.7993287658691406,998.2808685302734,276.2032165527344,34.216506685321136,,31.235249809427323
1557947643590,7.893086242675782,-7.073705176664556,0.45356314260313924,-1.0518626403808595,1.2217593383789063,998.2808685302734,273.94342041015625,34.216507589155135,,24.82873583608754
1557947643658,7.699239349365235,-7.073705176664556,0.33165645557810763,-0.7641609191894532,0.46657974243164063,998.2808685302734,273.94342041015625,34.21650840587063,0.0,26.180480967120925
1557947643723,7.74354721069336,-7.073705176664556,0.18690088510405847,-0.0293389892578125,0.6258485412597656,998.2808685302734,272.49273681640625,34.21650857766035,0.0,25.58708570533166
1557947643790,8.620872802734375,-7.073705176664556,0.40148461417006465,-1.3382171630859376,-0.057779846191406255,998.2808685302734,270.92486572265625,34.216508262667986,0.0,27.371926427047374
1557947643859,9.866133270263672,-7.073705176664556,0.6151764292213467,-1.826202392578125,-1.6974700927734376,998.2808685302734,269.7010498046875,34.21650562309807,0.0,37.773543130842086
1557947643923,11.260483703613282,-7.073705176664556,0.7592175764658278,-0.7192543029785157,1.055006103515625,998.2808685302734,267.7161865234375,34.21650847270283,,37.603470785299066
1557947643990,9.80236587524414,-7.073705176664556,1.4422197653347952,1.5070660400390625,5.600753173828125,998.2808685302734,265.1166687011719,34.21650798307506,35.5810546875,35.85347911094591
1557947644058,14.322965240478517,-7.073705176664556,1.07872001644334,0.5025050354003906,4.83554443359375,998.2808685302734,265.1166687011719,34.216509183317825,35.5810546875,35.06369717095504
1557947644126,10.57925033569336,-7.073705176664556,1.732066393086369,1.1141331481933594,-1.6625926208496093,998.2808685302734,264.7275695800781,34.216507288604994,,29.537596917332287
1557947644190,7.7794725036621095,-7.073705176664556,1.2177137992383111,3.0120364379882814,2.6837690734863284,998.2808685302734,263.6918640136719,34.21650715147927,0.0,26.93726948923647
1557947644259,8.877888336181641,-7.073705176664556,0.7858884494158627,-0.14325210571289063,0.3180885314941406,998.2808685302734,264.7388916015625,34.216506550098394,0.0,26.30427875025024
1557947644323,6.668033752441406,-7.073705176664556,0.7527929785885761,1.0850935363769532,-1.2912149047851562,998.3036804199219,261.8387451171875,34.216507884164685,0.0,30.289777052087782
1557947644390,8.234226837158204,-7.073705176664556,0.28977880587170496,0.7042854309082032,-0.305364990234375,998.3036804199219,260.697998046875,34.21650769383591,0.0,26.693168805661124
1557947644458,7.71914794921875,-7.073705176664556,0.5304010630591859,2.860701141357422,-0.22782623291015627,998.3036804199219,260.697998046875,34.21650824426288,0.0,28.027737252919756
1557947644523,12.355007629394532,-7.073705176664556,1.205629782795848,1.3861175537109376,0.9295669555664063,998.3036804199219,260.697998046875,38.841516594030324,0.0,28.830933585756902
1557947644590,11.392509155273437,-7.073705176664556,1.4643267964600017,-3.8264927673339844,2.7657984924316406,998.3036804199219,256.61004638671875,38.84152693065542,0.0,33.796680340336536
1557947644660,14.11519729614258,-7.073705176664556,0.8978779283617537,-0.5294490051269531,1.008153533935547,998.3036804199219,254.0731658935547,38.84154473761038,,31.676126727275303
1557947644723,10.307864685058595,-7.073705176664556,0.8576775359868778,-1.818867645263672,0.7583230590820312,998.3036804199219,252.50743103027344,38.84155167753349,0.0,27.944880466591698
1557947644790,6.728358306884766,-7.073705176664556,1.1690793807080453,-0.7223977661132813,0.5176235961914063,998.3036804199219,252.50743103027344,38.841560824204365,0.0,28.394780473741985
1557947644858,7.205715637207032,-7.073705176664556,0.2501574846382225,-1.186582489013672,-0.05912704467773438,998.3036804199219,252.50743103027344,38.841569730761805,0.0,25.185139398778876
1557947644923,6.2510009765625005,-7.073705176664556,0.5851452190422104,-0.06511459350585938,-1.684896240234375,998.3036804199219,254.69662475585938,38.841578878079815,0.0,31.3640344813399
1557947644990,8.579558715820314,-7.073705176664556,0.5514634101484782,-1.1008108520507813,-1.4507830810546876,998.3036804199219,256.156982421875,38.841579683007936,0.0,30.228406108765277
1557947645060,10.74645263671875,-7.073705176664556,0.6750791131203232,-1.1762539672851564,-1.5896942138671877,998.3036804199219,255.09426879882812,38.841581543916355,,33.51216345339342
1557947645123,10.741812286376954,-7.073705176664556,1.1506345820509527,1.2223580932617188,2.370919647216797,998.3036804199219,253.53616333007812,38.84157715738288,33.45703125,31.179338350396417
1557947645190,13.6372412109375,-7.073705176664556,1.4850800902223198,5.084177398681641,3.8745428466796876,998.3036804199219,258.8808898925781,38.841576734976364,0.0,29.60946195733832
1557947645258,12.443473663330078,-7.073705176664556,1.4352452638925832,-0.7252418518066407,-0.017214202880859376,998.3036804199219,260.0209655761719,38.84157734861511,0.0,30.11993114659257
1557947645323,7.5504487609863284,-7.073705176664556,1.2667709942246825,1.156644744873047,1.217717742919922,998.3213043212891,260.0209655761719,38.841578618955324,0.0,23.891660843645326
1557947645390,5.990093536376953,-7.073705176664556,0.747003131679104,0.3299139404296875,0.3339555358886719,998.3213043212891,258.9396667480469,38.84157620173432,0.0,28.785217955012065
1557947645459,7.87242919921875,-7.073705176664556,0.38629087235661086,1.4079721069335938,0.13202545166015625,998.3213043212891,257.57476806640625,38.84157988997604,0.0,28.66877814337499
1557947645523,8.07750274658203,-7.073705176664556,0.472144754779613,2.7167005920410157,-0.7447013854980469,998.3213043212891,259.2196044921875,38.84157923870963,0.0,30.982975364946977
1557947645590,13.196407928466797,-7.073705176664556,1.363282663578485,1.1831396484375,0.4571493530273438,998.3213043212891,259.2196044921875,38.84157676199141,0.0,29.618954736678504
1557947645659,11.039842529296875,-7.073705176664556,1.2554968463195701,-2.7256819152832032,2.844085693359375,998.3213043212891,257.60845947265625,38.841578015422,,34.046627008737225
1557947645723,16.581019592285156,-7.073705176664556,1.5585569300773965,-1.700164489746094,-1.046473846435547,998.3213043212891,253.62054443359375,38.84157826866611,,30.726174765452363
1557947645790,9.175020446777344,-7.073705176664556,1.5395046790815203,-2.1356089782714847,0.6776408386230469,998.3213043212891,250.24862670898438,38.841580765992255,385.01953125,24.683473304121573
1557947645859,7.035818939208985,-7.073705176664556,1.0020428820126952,-0.408350830078125,0.7189549255371094,998.3213043212891,250.24862670898438,38.841581166623534,0.0,24.409090820652178
1557947645923,6.181246032714844,-7.073705176664556,0.7421572579638853,-1.1657757568359375,-1.706301727294922,998.3213043212891,250.24862670898438,38.841579537644094,0.0,32.15373152783422
1557947645990,7.728877716064454,-7.073705176664556,0.4680955170711518,-0.9565109252929688,-2.6232948303222656,998.3213043212891,251.35047912597656,38.84157960354243,0.0,30.79181246047625
1557947646057,7.866741027832032,-7.073705176664556,0.5584741186074433,-1.4503340148925783,-0.10103988647460938,998.3213043212891,249.51278686523438,38.841578280327944,0.0,29.717395908877783
1557947646122,11.183693389892579,-7.073705176664556,0.867814989825687,-1.6299604797363283,-1.1497590637207031,998.3213043212891,249.51278686523438,38.84157940301132,0.0,30.9968064110925
1557947646190,11.082054748535157,-7.073705176664556,1.5223141520035313,2.637964324951172,3.057092742919922,998.3213043212891,249.51278686523438,38.841578927010204,0.0,30.149403497929367
1557947646259,15.103891296386719,-7.073705176664556,1.1196777866562537,2.0288809204101566,2.3126907348632812,998.3213043212891,251.76385498046875,38.84158096536109,0.0,32.84656282788516
1557947646323,12.185410308837891,-7.073705176664556,1.0668586516261378,0.3737727355957031,-0.7318281555175782,998.333740234375,252.89541625976562,38.84158021325318,0.0,33.796680340336536
1557947646389,7.178771667480469,-7.073705176664556,1.3940453712371108,1.3968951416015625,1.0000703430175781,998.333740234375,252.89541625976562,38.841578883736716,0.0,26.473829701146197
1557947646458,7.313641204833985,-7.073705176664556,0.46703596961071403,-0.02185455322265625,0.2549198913574219,998.333740234375,252.89541625976562,38.841581251735825,0.0,25.751878449276614
1557947646523,7.787705383300781,-7.073705176664556,0.35249692450591247,1.397493896484375,-0.49651748657226563,998.333740234375,250.76025390625,38.84157962814741,0.0,22.30448921378274
1557947646590,8.129444732666016,-7.073705176664556,0.4961548605276921,2.288590850830078,-1.6426840209960938,998.333740234375,254.58718872070312,38.8415806738876,0.0,27.20159303405957
1557947646661,10.252330169677736,-7.073705176664556,0.7038515127761704,1.701661376953125,0.36853363037109377,998.333740234375,253.33766174316406,38.8415786863213,0.0,25.877109650189112
1557947646723,13.078453216552735,-7.073705176664556,0.936557223350096,0.6108796691894531,1.0225236511230469,998.333740234375,251.3047332763672,38.84157755149514,0.0,26.483600109809316
1557947646790,12.345427551269532,-7.073705176664556,1.5207083515881328,-5.097948760986329,1.6829502868652344,998.333740234375,245.7554168701172,38.84157699276392,0.0,29.647309210536292
1557947646859,12.95271469116211,-7.073705176664556,1.1222439685559924,0.31674133300781254,-0.6569837951660157,998.333740234375,243.7898712158203,38.84158053275553,0.0,29.66610986681934
1557947646924,6.724167022705078,-7.073705176664556,1.5352003372400413,-0.947230224609375,0.7566764831542969,998.333740234375,241.476806640625,38.84157979327774,0.0,24.13299764081252
1557947646989,9.071884918212891,-7.073705176664556,0.5247376052249324,-2.0636087036132813,-0.7475454711914062,998.333740234375,241.476806640625,38.84157751210344,0.0,24.578818967339924
1557947647061,6.326294403076172,-7.073705176664556,1.0620575864766835,0.5992039489746094,-2.681074676513672,998.333740234375,241.476806640625,38.84158162510986,0.0,29.921114877869496
1557947647123,8.079897766113282,-7.073705176664556,0.5531552217898592,-1.1142828369140625,-0.5402265930175781,998.333740234375,242.9954833984375,38.841575704431385,0.0,30.82066934285113
1557947647189,7.428302764892578,-7.073705176664556,0.24184432511513831,-0.5333409118652344,-1.7712666320800783,998.333740234375,241.25856018066406,38.84158106953593,0.0,27.032913781186615
1557947647259,14.351256408691407,-7.073705176664556,1.8670909679336003,-0.9243278503417969,1.442849578857422,998.333740234375,242.76675415039062,38.841578622568356,0.0,30.461047872460387
1557947647323,10.6195166015625,-7.073705176664556,1.3377060090043045,3.9447468566894535,2.6693989562988283,998.3518981933594,242.76675415039062,38.84157822672046,0.0,29.06335041805091
1557947647389,16.673377532958984,-7.073705176664556,1.5390512140399553,2.4102877807617187,-0.48933242797851567,998.3518981933594,245.86209106445312,38.8415786987384,0.0,44.21702618946589
1557947647459,9.126820678710938,-7.073705176664556,1.635142681672321,0.29114456176757814,-0.25656646728515625,998.3518981933594,245.86209106445312,38.8415777189066,,28.432327780980096
1557947647522,8.321944427490235,-7.073705176664556,0.6452052526419704,1.5557148742675782,0.6494993591308594,998.3518981933594,242.5060577392578,38.841578736218025,0.0,24.94154594018443
1557947647589,5.249733123779297,-7.073705176664556,0.9403619852006785,0.849034423828125,-0.24893234252929688,998.3518981933594,239.9747314453125,38.841579482277965,0.0,28.356905714924252
1557947647659,7.99697021484375,-7.073705176664556,0.5686764948426118,2.2269190979003906,-0.5858816528320313,998.3518981933594,237.10635375976562,38.84157978042455,0.0,23.117538610557542
1557947647723,9.8052099609375,-7.073705176664556,0.9075872955414485,3.190166015625,-2.9659323120117187,998.3518981933594,235.58145141601562,38.84157807933282,0.0,33.392526340326995
1557947647791,10.419382781982423,-7.073705176664556,0.40127233162958537,2.6171575927734376,-1.260828094482422,998.3518981933594,234.32080078125,38.84158083765728,,32.20108088040055
1557947647858,12.580887908935548,-7.073705176664556,1.8342300805404148,-2.1076171875000003,3.113675079345703,998.3518981933594,229.69094848632812,38.84158006741925,,33.78397900948138
1557947647923,11.153156890869141,-7.073705176664556,0.7903826648319354,-0.05763015747070313,4.909191284179688,998.3518981933594,223.99456787109375,38.84157943009752,136.6845703125,32.30704313612569
1557947647989,15.744708709716798,-7.073705176664556,1.671185385525529,2.189197540283203,-0.2435435485839844,998.3518981933594,218.98794555664062,38.84158043383064,,40.55340099544181
1557947648063,8.315358123779298,-7.073705176664556,1.8120652489587188,-1.8788928222656252,1.5522720336914064,998.3518981933594,214.83013916015625,38.841579748699246,,31.261314072619847
1557947648123,7.713759155273438,-7.073705176664556,0.5697927246809777,-1.409468994140625,1.1388317871093752,998.3518981933594,196.84783935546875,38.84157953365239,49.970703125,26.324572921847246
1557947648189,7.864495697021485,-7.073705176664556,0.5283219477507737,-0.5180726623535157,-0.6475534057617188,998.3518981933594,190.97926330566406,38.84158011073357,0.0,28.350561017201162
1557947648259,9.688602447509766,-7.073705176664556,0.48718402113134013,-0.005538482666015625,-0.6948550415039063,998.3518981933594,183.24366760253906,38.84158299044055,0.0,29.222062774390164
1557947648322,10.362950134277344,-7.073705176664556,0.5615412574918415,-1.1871812438964844,-2.251168670654297,998.3820343017578,179.00079345703125,38.84158072526274,0.0,28.819549713396007
1557947648390,15.102693786621094,-7.073705176664556,2.363047855403141,-1.0677296447753908,6.180048522949219,998.3820343017578,170.71707153320312,38.84157793175269,,39.49780208362001
1557947648459,6.347699890136719,-7.073705176664556,2.2650999128390743,3.285817108154297,6.852001190185547,998.3820343017578,165.015625,38.84158023032682,99.4234619140625,32.038484637462346
1557947648523,9.713001708984375,-7.073705176664556,0.9497853068499584,-0.8446934509277344,4.4776387023925786,998.3820343017578,158.99044799804688,38.841579926191756,0.0,27.31588765186739
1557947648589,9.850266265869141,-7.073705176664556,0.6349328324818694,0.5026547241210938,2.485730895996094,998.3820343017578,157.34713745117188,38.84158113472072,0.0,27.05007959333336
1557947648659,8.094267883300782,-7.073705176664556,0.5072458638890485,1.5414944458007813,3.3358131408691407,998.3820343017578,154.43087768554688,38.84157927563595,0.0,27.18501688867274
1557947648723,9.471254425048828,-7.073705176664556,0.5034134223496342,1.5869998168945314,1.5431410217285157,998.3820343017578,153.2669219970703,38.84157935022085,0.0,28.432327780980096
1557947648790,8.90183853149414,-7.073705176664556,0.3170639002293768,1.8327886962890625,0.7961943054199219,998.3820343017578,153.2669219970703,38.84157889483026,0.0,26.693168805661124
1557947648860,10.418185272216798,-7.073705176664556,0.46998923945863924,0.5355862426757813,1.0539582824707032,998.3820343017578,147.7935028076172,38.84158237101912,0.0,31.43014800254095
1557947648922,10.36324951171875,-7.073705176664556,0.25450305746475144,1.3440550231933595,0.23306533813476563,998.3820343017578,146.32171630859375,38.84157888753916,0.0,27.9309160017658
1557947648989,10.349927215576173,-7.073705176664556,0.8363680513194249,4.439617767333985,-0.4584965515136719,998.3820343017578,144.8877716064453,38.84158186724533,0.0,25.58708570533166
1557947649061,10.948831787109375,-7.073705176664556,0.41075266363528273,2.745590515136719,1.0041119384765627,998.3820343017578,143.2429962158203,38.84158077740524,0.0,29.60946195733832
1557947649123,8.78627883911133,-7.073705176664556,1.3928131986920762,-1.4581178283691407,3.41769287109375,998.3820343017578,140.2585906982422,38.84158012544232,0.0,31.513698502474604
1557947649190,6.660399627685547,-7.073705176664556,0.7208434539491372,-0.6065386962890625,3.9942938232421876,998.3820343017578,132.12020874023438,38.84158142426095,0.0,28.573324964312686
1557947649259,13.461207275390626,-7.073705176664556,1.5690099287944896,0.5189707946777344,2.887944488525391,998.3820343017578,128.91604614257812,38.841580851326896,0.0,38.581159321900664
1557947649323,7.929610290527344,-7.073705176664556,1.1985525938331207,-0.15477813720703126,0.4496649169921875,998.4184265136719,125.9086685180664,38.841580516697825,,33.453737305590884
1557947649389,9.050030364990235,-7.073705176664556,0.5308402569935802,-1.1846365356445314,2.8964767456054688,998.4184265136719,114.40843200683594,38.84158103233941,430.703125,30.0987563371216
1557947649460,8.59422821044922,-7.073705176664556,0.2647108834663306,-1.0731184387207031,1.4940431213378906,998.4184265136719,107.52630615234375,38.841581795315065,0.0,28.981764834976765
1557947649523,8.451125793457031,-7.073705176664556,0.42220174750817274,-2.2962249755859374,0.643062744140625,998.4184265136719,101.36186981201172,38.841580958204055,0.0,28.027737252919756
1557947649589,10.791059875488282,-7.073705176664556,0.8118489579526412,-0.033679962158203125,-0.33799713134765624,998.4184265136719,94.95553588867188,38.84158086314433,0.0,26.830470382388498
1557947649661,10.4853955078125,-7.073705176664556,0.2791196236992861,-1.6013699340820313,0.06496490478515625,998.4184265136719,89.5749740600586,38.84158328694028,0.0,28.2865989653532
1557947649723,13.727503509521485,-7.073705176664556,0.9089990685811198,-2.7526258850097656,0.5490582275390625,998.4184265136719,83.26619720458984,48.290655870566745,0.0,32.53580289562183
1557947649790,8.070467376708985,-7.073705176664556,1.5695491020743193,0.7822732543945313,2.8672874450683596,998.4184265136719,80.27572631835938,48.2906613603829,0.0,28.23474229170301
1557947649858,6.674320678710938,-7.073705176664556,1.0061901470439703,1.6383430480957033,4.679269409179688,998.4184265136719,79.13593292236328,48.29067179978126,0.0,28.62727528317975
1557947649923,10.388846282958985,-7.073705176664556,1.0745607216848936,-1.5774197387695312,3.600462799072266,998.4184265136719,77.52055358886719,48.2906795042612,0.0,27.47411807886423
1557947649990,8.884324951171875,-7.073705176664556,0.7306161595728691,1.0614427185058595,1.6196319580078127,998.4184265136719,72.35267639160156,48.29068816760755,0.0,26.61812685537261
1557947650061,8.152197418212891,-7.073705176664556,0.42245948547527545,1.1481124877929687,3.4486784362792973,998.4184265136719,72.35267639160156,48.290699353444374,0.0,25.41579243946581
1557947650123,9.382339324951172,-7.073705176664556,0.41080561357187256,0.7122189331054688,1.853445739746094,998.4184265136719,67.89594268798828,48.29071680587826,0.0,25.831987739686227
1557947650189,7.909402313232422,-7.073705176664556,0.43207330384009957,0.24414230346679688,1.0761122131347656,998.4184265136719,67.89594268798828,48.2907205411874,0.0,27.209857441537388
1557947650258,8.437354431152345,-7.073705176664556,0.13510825975448232,0.8635542297363281,1.4419514465332033,998.4184265136719,67.89594268798828,48.29071919026471,0.0,25.943925503754265
1557947650323,7.593858489990235,-7.073705176664556,0.29824699548040234,1.159339141845703,0.6259982299804688,998.4532928466797,65.95913696289062,48.29071970205603,0.0,29.180303367848804
1557947650389,9.871671752929688,-7.073705176664556,0.5942977793578587,2.1008811950683595,0.34712814331054687,998.4532928466797,65.95913696289062,48.290723236498344,0.0,30.086001717619176
1557947650459,9.899663543701172,-7.073705176664556,0.1594886187198946,1.5447875976562502,0.6065386962890625,998.4532928466797,65.95913696289062,48.29072010367138,0.0,28.122446968003693
1557947650523,11.059152374267578,-7.073705176664556,1.3525122590899639,-2.434687042236328,3.912114715576172,998.4532928466797,65.95913696289062,48.290721498766466,0.0,28.60936620700094
1557947650589,14.686259765625001,-7.073705176664556,1.0591586899039331,-2.8300149536132815,2.4831861877441406,998.4532928466797,64.3847885131836,50.10630378167997,0.0,30.09450895798694
1557947650658,8.665330352783204,-7.073705176664556,1.3702810970040855,-1.4482383728027344,0.7210505676269532,998.4532928466797,63.00763702392578,50.106306730962395,0.0,29.375178920173468
1557947650723,8.240513763427735,-7.073705176664556,0.5039865737393365,-0.47675857543945316,1.1535012817382813,998.4532928466797,61.647193908691406,50.10630667175884,0.0,27.88168371141168
1557947650789,6.990612945556641,-7.073705176664556,0.5702367586844023,-1.292113037109375,-0.3308120727539063,998.4532928466797,59.86276626586914,50.106307912120826,0.0,27.17670503002262
1557947650859,7.347919921875,-7.073705176664556,0.5577212449569535,-0.06735992431640625,-1.8851797485351562,998.4532928466797,59.86276626586914,50.10630941854414,0.0,35.340261060561346
1557947650923,7.9345500183105475,-7.073705176664556,0.2115993074496066,-0.228724365234375,-2.0160076904296877,998.4532928466797,59.86276626586914,50.106307039015334,0.0,34.948500216800944
1557947650990,8.020022277832032,-7.073705176664556,0.6066768218112891,-2.442470855712891,-0.8300239562988282,998.4532928466797,61.21185302734375,50.10630786235965,,33.17645543221158
1557947651060,12.200079803466798,-7.073705176664556,1.2587750232915385,-1.2469070434570313,1.5531701660156252,998.4532928466797,62.53156661987305,50.106307740336874,27.2998046875,33.07496037913213
1557947651123,12.362791442871094,-7.073705176664556,1.7735527725742077,4.426894226074219,4.7364505004882815,998.4532928466797,66.88358306884766,50.10630890140638,0.0,31.925674533365456
1557947651190,12.379706268310548,-7.073705176664556,1.0662390929820789,1.5582595825195313,-0.23680755615234375,998.4532928466797,68.49846649169922,50.106307904167785,0.0,31.72310968521954
1557947651259,9.549691314697267,-7.073705176664556,0.8158424051899315,0.2125579833984375,1.2210108947753906,998.4532928466797,66.40369415283203,50.10630996379453,,28.325089127062363
1557947651323,6.959178314208985,-7.073705176664556,0.8734470272225803,1.5768209838867189,0.34637969970703125,998.4765625,66.40369415283203,50.106309586296824,0.0,29.237619608287005
1557947651389,6.600075073242188,-7.073705176664556,0.46200811578428747,-0.00508941650390625,0.07634124755859376,998.4765625,66.40369415283203,50.106310701599114,0.0,29.132839017604187
1557947651458,8.083789672851562,-7.073705176664556,0.6594230707650307,2.5988955688476563,-0.4435276794433594,998.4765625,68.04943084716797,50.10631038305242,0.0,29.09020854211156
1557947651523,8.071215820312501,-7.073705176664556,0.362951391266427,0.7006929016113281,-0.7888595581054688,998.4765625,69.23880767822266,50.106308395726955,0.0,30.203612826477077
1557947651590,9.610165557861329,-7.073705176664556,0.43286593307047494,1.4109658813476562,-0.14998809814453126,998.4765625,69.23880767822266,49.30134145647209,0.0,34.49169732165201
1557947651659,13.34400100708008,-7.073705176664556,1.5326906532922955,-1.8537451171875001,2.9506640625,998.4765625,69.23880767822266,49.30135419524489,0.0,32.02488317060094
1557947651723,12.68926254272461,-7.073705176664556,0.4556996369502232,-2.0242405700683594,0.643062744140625,998.4765625,67.35770416259766,49.30135269431358,0.0,34.34728541779758
1557947651789,11.42469223022461,-7.073705176664556,0.41259082613226433,-0.6212081909179688,0.9505233764648438,998.4765625,65.1097640991211,49.30135339600561,0.0,28.14913181275074
1557947651859,6.045029296875001,-7.073705176664556,1.43124679010009,-0.1389111328125,0.89334228515625,998.4765625,64.09978485107422,49.30135405542068,0.0,27.85329835010767
1557947651923,7.726033630371094,-7.073705176664556,0.4073348132042529,-1.907483367919922,0.5896238708496094,998.4765625,62.88967514038086,49.30135407477965,0.0,27.774268223893117
1557947651990,6.205345916748048,-7.073705176664556,0.9182731530473454,-0.13516891479492188,-2.407892761230469,998.4765625,58.190277099609375,49.301353826183494,0.0,29.62369335670021
1557947652060,8.130193176269533,-7.073705176664556,0.42130008667551233,0.0017962646484375,-2.0517832946777346,998.4765625,59.347450256347656,49.301351222778045,0.0,30.867156639448826
1557947652123,9.146130523681641,-7.073705176664556,0.3941882400922542,-0.20642074584960937,-1.2406201171875,998.4765625,62.3270378112793,49.30135513322035,0.0,31.62564406523019
1557947652189,12.753179626464844,-7.073705176664556,1.0864161192908046,-0.47376480102539065,-0.7361691284179688,998.4765625,62.3270378112793,49.30135412344011,0.0,30.867156639448826
1557947652259,10.555898895263672,-7.073705176664556,1.659082688301919,4.352947998046875,4.379143524169922,998.4765625,67.1800308227539,49.30135413057294,,29.633155113861115
1557947652323,16.39450744628906,-7.073705176664556,1.6436286018085813,1.248852996826172,0.27842102050781253,998.485107421875,66.69965362548828,49.301356189509896,,34.252080511386566
1557947652391,8.73613311767578,-7.073705176664556,1.632321612425727,0.23561004638671876,0.004640350341796875,998.485107421875,62.91661071777344,49.30135476655581,722.6123046875,26.61812685537261
1557947652460,6.95513671875,-7.073705176664556,0.9744622749361109,2.4077430725097657,1.1180250549316406,998.485107421875,62.91661071777344,49.30135482235755,0.0,28.943160626844385
1557947652523,7.273075561523438,-7.073705176664556,0.6577053331465715,-0.02724334716796875,-0.7429051208496094,998.485107421875,64.01457977294922,49.3013549154366,0.0,24.14973347970818
1557947652590,7.304659881591797,-7.073705176664556,0.2994702146577958,1.4458433532714845,-1.017733612060547,998.485107421875,62.84904098510742,49.30135652619637,0.0,26.73020907128896
1557947652659,8.189619598388672,-7.073705176664556,0.5277109879347172,2.9071046447753908,0.0520916748046875,998.485107421875,62.84904098510742,49.301355256947566,0.0,31.405080430381798
1557947652723,12.926968231201172,-7.073705176664556,0.9243932783971767,0.9813592529296875,-0.0209564208984375,998.485107421875,64.11493682861328,49.30135395886819,0.0,33.44588742578714
1557947652790,11.679462432861328,-7.073705176664556,0.6296288174567474,-0.44158172607421875,1.1033555603027345,998.485107421875,60.814476013183594,49.30135287387076,,29.929950984313415
1557947652860,12.931458892822267,-7.073705176664556,0.8095017749874264,-2.803220672607422,1.021475830078125,998.485107421875,58.58489227294922,49.3013554615142,,31.607685618611278
1557947652923,10.596314849853517,-7.073705176664556,0.690634803112923,-0.32183074951171875,0.14055770874023438,998.485107421875,54.279197692871094,49.30135709015443,31.7138671875,29.4101424370557
1557947652990,5.823939056396485,-7.073705176664556,1.3272818714877155,-0.29937744140625,0.8936416625976563,998.485107421875,54.279197692871094,49.30135401219095,0.0,28.60936620700094
1557947653058,8.75469451904297,-7.073705176664556,0.597203232986271,-1.5325131225585937,-0.6024971008300781,998.485107421875,54.279197692871094,49.30135307195925,0.0,25.61101383649056
1557947653123,5.288951568603516,-7.073705176664556,1.0152716589974071,-0.8408015441894532,-2.7321185302734374,998.485107421875,51.366004943847656,49.301353298191316,0.0,36.8930885912362
1557947653190,8.314310302734375,-7.073705176664556,0.716181721748809,0.09535171508789063,-0.45655059814453125,998.485107421875,48.49475860595703,49.30135495012514,,30.370278797557752
1557947653259,10.235415344238282,-7.073705176664556,0.6941635997771626,-0.488583984375,-2.0282821655273438,998.485107421875,49.8632926940918,49.30135385243231,75.64522879464286,35.88271706842329
1557947653323,11.431428222656251,-7.073705176664556,1.176809603009423,0.7622149658203126,2.4504043579101564,998.4932708740234,51.032142639160156,54.041932818723986,75.64522879464286,33.94976719554564
1557947653390,14.89073455810547,-7.073705176664556,1.3200342203348197,2.55069580078125,3.070714416503906,998.4932708740234,55.56495666503906,54.0419412850955,41.748046875,28.142475957319203
1557947653460,10.543474731445313,-7.073705176664556,1.410261186849934,-0.2677931213378906,-0.6511459350585938,998.4932708740234,52.88429641723633,54.04195312080967,0.0,26.570558528571038
1557947653523,7.898325347900391,-7.073705176664556,0.8855699835110631,0.8637039184570313,0.6822811889648438,998.4932708740234,51.32223892211914,54.04196422798581,0.0,29.052560487484513
1557947653590,7.634873199462891,-7.073705176664556,0.31885670591639853,0.28830047607421877,0.8747808837890625,998.4932708740234,49.7198486328125,54.04197598367202,0.0,26.148972160331347
1557947653660,6.7193769836425785,-7.073705176664556,0.7308074286975066,1.5608042907714845,-1.6096028137207032,998.4932708740234,49.7198486328125,54.04199240141674,0.0,30.692980121155294
1557947653723,7.655829620361328,-7.073705176664556,0.3886769843101047,1.28373046875,-0.2555186462402344,998.4932708740234,49.7198486328125,54.04200325661511,0.0,26.580113966571126
1557947653789,8.077652435302735,-7.073705176664556,0.12086150190247452,1.5741265869140626,-0.1435514831542969,998.4932708740234,49.7198486328125,54.04201698878516,0.0,31.911714557285585
1557947653858,14.129417724609375,-7.073705176664556,1.5706140834138678,0.5583389282226563,1.149459686279297,998.4932708740234,48.64777755737305,54.04201313557084,0.0,34.48087666692341
1557947653923,15.366445312500002,-7.073705176664556,1.86292860933402,-6.132148132324219,0.5774990844726563,998.4932708740234,45.07386779785156,54.04201566955654,0.0,30.762762554042176
1557947653990,11.922556915283204,-7.073705176664556,0.9868642199339248,-1.5840060424804687,0.8530760192871094,998.4932708740234,43.63862228393555,54.04201236555641,0.0,28.142475957319203
1557947654058,6.592141571044922,-7.073705176664556,1.614611805186445,0.0520916748046875,0.7737409973144531,998.4932708740234,42.45071792602539,54.04201665126027,0.0,27.12649701627211
1557947654123,5.53294418334961,-7.073705176664556,0.7092633254642635,-2.0142114257812502,-0.05239105224609375,998.4932708740234,40.611473083496094,54.04201658412735,0.0,27.75974331129369
1557947654190,6.2333377075195315,-7.073705176664556,0.7642936021444322,-0.23561004638671876,-2.7460395812988283,998.4932708740234,37.49335861206055,54.042015636067106,0.0,34.53624073591451
1557947654260,6.8567912292480475,-7.073705176664556,0.4812590713763255,-1.1358380126953125,-0.2165995788574219,998.4932708740234,37.49335861206055,54.04201315020364,0.0,33.37259539750276
1557947654323,9.333690490722656,-7.073705176664556,0.7245787026406978,-1.7070501708984376,-1.2111314392089845,998.5145568847656,38.51109313964844,54.0420154878496,,33.4183005692051
1557947654390,14.490017852783204,-7.073705176664556,1.8862852640462677,-0.06496490478515625,3.5316059875488284,998.5145568847656,40.09364700317383,54.042015603605044,30.625,39.354568807116095
1557947654461,13.509856109619141,-7.073705176664556,1.6293886752397158,6.067332916259766,1.8145266723632814,998.5145568847656,43.48123550415039,54.04201450059798,30.625,32.87577809078706
1557947654523,13.030852203369141,-7.073705176664556,1.5580065339814715,-0.8698411560058594,-1.272803192138672,998.5145568847656,41.373802185058594,54.04201485004874,27.7783203125,27.331972651065698
1557947654590,6.603966979980469,-7.073705176664556,1.6427772177062123,1.0898835754394531,0.09175918579101563,998.5145568847656,41.373802185058594,54.04201503210962,0.0,28.221680793680175
1557947654659,7.563771057128907,-7.073705176664556,0.2323685049651604,1.0162367248535156,0.5917195129394531,998.5145568847656,38.71526336669922,54.04201474187393,0.0,27.810369386211317
1557947654723,6.9201095581054695,-7.073705176664556,0.5224327334069256,1.8621276855468751,-1.2879217529296876,998.5145568847656,36.842220306396484,54.0420139394992,0.0,28.444771757456813
1557947654790,9.461225280761719,-7.073705176664556,0.7157639211351944,3.0082942199707032,-1.7916242980957031,998.5145568847656,35.446739196777344,54.04201318177748,0.0,33.89874558390985
1557947654859,11.257938995361329,-7.073705176664556,0.722667979952691,1.3584251403808594,-0.5725593566894531,998.5145568847656,33.83140563964844,50.59962233994641,0.0,29.800033715837465
1557947654923,11.292816467285157,-7.073705176664556,0.6794934068447285,-0.632135467529297,0.45295806884765627,998.5145568847656,31.27328872680664,50.59962768897362,0.0,28.344207036815323
1557947654990,11.743978271484375,-7.073705176664556,0.7237622024795175,-2.5370741271972657,1.490899658203125,998.5145568847656,27.839855194091797,50.599633675274205,0.0,27.81755374652469
1557947655058,13.196707305908204,-7.073705176664556,1.127265305271202,1.0515632629394531,-1.8396743774414064,998.5145568847656,25.08934783935547,50.59965500578263,0.0,28.33147111912785
1557947655123,6.095175018310547,-7.073705176664556,1.7125071460247634,-0.0221539306640625,0.29338989257812503,998.5145568847656,21.81482696533203,50.59966352426047,0.0,23.944516808262165
1557947655190,9.358688507080078,-7.073705176664556,0.6036645756294735,-1.6247213745117188,-0.7358697509765625,998.5145568847656,17.29357147216797,50.59967549472909,0.0,26.344772701607315
1557947655259,7.0820727539062505,-7.073705176664556,0.5048567424965734,-1.0711724853515625,-1.2918136596679688,998.5145568847656,12.78571605682373,50.59968492844472,0.0,27.951845896824242
1557947655323,9.022188262939453,-7.073705176664556,0.37286902107025177,-1.294508056640625,-0.9467811584472656,998.5471343994141,10.178982734680176,50.59969761313626,0.0,21.398790864012366
1557947655390,8.480015716552735,-7.073705176664556,0.6455200232940645,-0.04924758911132813,-3.2684532165527345,998.5471343994141,7.983535289764404,50.59970538060717,0.0,32.20892249219519
1557947655460,11.581116943359376,-7.073705176664556,0.8486451734363322,-0.7140151977539063,-1.2693603515625,998.5471343994141,6.817033767700195,50.59971528000826,0.0,35.76916955965207
1557947655523,10.755433959960937,-7.073705176664556,1.6906863731219548,2.3258633422851562,4.459226989746094,998.5471343994141,10.833691596984863,50.5997162610586,,37.73932647467645
1557947655590,15.059882812500001,-7.073705176664556,1.4239291116735835,1.3189073181152344,6.675667877197266,998.5471343994141,9.161615371704102,50.59971692051368,0.0,29.800033715837465
1557947655659,11.58470947265625,-7.073705176664556,1.6055886817206912,-0.086220703125,-0.029788055419921876,998.5471343994141,3.549215316772461,49.116876553125536,0.0,29.390197764486665
1557947655723,7.799830169677735,-7.073705176664556,1.1526335500072544,1.36276611328125,0.4881349182128906,998.5471343994141,1.5947868824005127,49.11688462593256,0.0,24.712917110589387
1557947655790,6.52642822265625,-7.073705176664556,0.6199728413053176,0.4519102478027344,1.0707234191894532,998.5471343994141,1.5947868824005127,49.11689690233896,0.0,27.745169657285498
1557947655860,9.227261810302736,-7.073705176664556,0.5945420727597437,0.6740483093261719,-0.11555969238281251,998.5471343994141,1.5947868824005127,49.11690811131212,0.0,28.2865989653532
1557947655923,10.604398040771486,-7.073705176664556,0.6581751948561467,1.222657470703125,-1.5691868591308595,998.5471343994141,358.0246276855469,49.11692420870137,0.0,30.034605321095068
1557947655989,11.229647827148439,-7.073705176664556,0.27538955089245337,1.0600955200195312,-1.1277548217773439,998.5471343994141,356.8192138671875,49.11693635824606,0.0,32.64817823009536
1557947656058,12.033625946044923,-7.073705176664556,0.41170819200388276,1.7320481872558595,-0.5866300964355469,998.5471343994141,354.9465637207031,49.11694406698415,0.0,27.39572344450092
1557947656123,8.192763061523438,-7.073705176664556,1.2274820040579681,0.7991880798339844,2.9389883422851564,998.5471343994141,354.9465637207031,49.116954788089124,0.0,28.46955325019824
