timestamp,AmbientLightSensor,DecibelSource,PitchSensor,LinearAccelerometerSensor,AccX,AccY,AccZ,BarometerSensor,CompassSensor,MagneticRotationSensor
1557947875609,,32.225933331570296,98.55305989583334,,,,,,,
1557947875615,,,57.8486328125,,,,,,,
1557947875649,,34.55289958295793,57.8486328125,,,,,,,
1557947875662,,,,,,,,,,20.91626250809977
1557947875663,,,,1.1540545678815164,0.1149216815829277,2.849100112915039,7.253233909606934,,221.8202050902779,
1557947875709,,37.805497094319534,57.8486328125,,,,,,,
1557947875715,,,,2.079578550997309,0.20111294090747833,2.513911724090576,7.914033889770508,999.489990234375,237.76323265092168,20.781964194509168
1557947875716,2.0,,,,,,,,231.52113642882534,
1557947875720,,,53.0712890625,,,,,,,
1557947875749,,37.253320673938305,53.0712890625,,,,,,,
1557947875765,,,,1.984303750989295,,,,,,
1557947875766,,,,,-0.6512228846549988,4.146757125854492,10.552444458007813,,233.54595966865395,20.781964194509168
1557947875789,,37.59885448803477,53.0712890625,,,,,,,
1557947875829,,37.57721121778491,,,,,,,,
1557947875833,,,,2.6501364870730653,,,,,,
1557947875834,2.0,,,,-0.35434186458587646,3.9695863723754883,11.687295913696289,,230.27962660377045,20.998333917557197
1557947875869,,37.77278429707635,,,,,,,,
1557947875877,,,51.640625,,,,,,,
1557947875889,3.0,,,3.089371173662567,-0.4836287498474121,2.8634653091430664,12.223596572875977,999.4599609375,219.5713926268079,20.84178560302591
1557947875909,,39.128900775933275,51.640625,,,,,,,
1557947875954,3.0,,,1.9323468127611585,-0.7757213711738586,3.845088005065918,10.461463928222656,,225.04286592560834,20.27436822831207
1557947875969,,37.74207024973445,51.640625,,,,,,,
1557947876009,,37.064957967248645,51.640625,,,,,,,
1557947876021,,,,1.277206693523273,-0.6320692300796509,3.5386300086975098,9.412803649902344,,220.30559698144924,20.0534287848044
1557947876049,,35.79807167881581,,,,,,,,
1557947876073,3.0,,,,,,,,,
1557947876087,,,,,,,,999.469970703125,,
1557947876088,,,,1.1801675994299032,-0.44532153010368347,3.112462282180786,8.04810905456543,,213.8027924387335,20.0534287848044
1557947876089,,34.9203545106158,,,,,,,,
1557947876099,,,100.740966796875,,,,,,,
1557947876129,,33.831568450325726,100.740966796875,,,,,,,
1557947876156,,,,1.9033131724067587,-0.1628057211637497,2.8586769104003906,7.602787494659424,,218.81412955352857,20.28546325933158
1557947876169,,32.83098430492613,100.740966796875,,,,,,,
1557947876184,,,100.361328125,,,,,,,
1557947876190,3.0,,,,,,,,,
1557947876206,,,,2.0813807174368577,-0.42616790533065796,3.4332852363586426,7.7847466468811035,,219.30688672100996,20.18043655736147
1557947876229,,34.181659848886,100.361328125,,,,,,,
1557947876269,,33.91518041457012,100.361328125,,,,,,,
1557947876279,,,,1.991255598329767,-1.1779472827911377,2.935291290283203,9.838972091674805,999.5,207.58830384126236,20.03721587324115
1557947876309,,34.63891123455775,,,,,,,,
1557947876311,3.0,,,,,,,,,
1557947876342,,,,1.5621941076307968,-0.828393816947937,3.7828385829925537,9.599552154541016,,199.30436354792585,20.03721587324115
1557947876349,,36.72508039730087,,,,,,,,
1557947876358,,,99.814453125,,,,,,,
1557947876389,,35.29011250219996,99.814453125,,,,,,,
1557947876393,,,,1.3468173304556192,-0.7134721279144287,3.021482467651367,10.236409187316895,,196.87844427927735,20.03721587324115
1557947876429,3.0,,,,,,,,,
1557947876449,,34.815704136326524,99.814453125,,,,,,,
1557947876460,,,100.83984375,,,,,,,
1557947876463,,,,,,,,999.47998046875,,
1557947876464,,,,1.3091032488198004,-0.26815059781074524,3.2848446369171143,11.12226390838623,,189.8071221108064,19.913312618104158
1557947876489,,35.57549807192208,100.83984375,,,,,,,
1557947876529,,36.393697963790565,100.83984375,2.616708466829734,-0.3447650372982025,3.3231520652770996,11.883620262145996,,194.3587465133246,20.154900409080525
1557947876538,,,99.1357421875,,,,,,,
1557947876544,3.0,,,,,,,,,
1557947876569,,37.640440548930734,99.1357421875,,,,,,,
1557947876593,,,,2.4285529821160132,,,,,,
1557947876594,,,,,-0.43095630407333374,2.868253707885742,11.84531307220459,,191.84288731368542,20.4699787296414
1557947876609,,35.807677980822945,99.1357421875,,,,,,,
1557947876646,4.0,,,2.4345523911607234,0.8906430602073669,3.1459810733795166,8.316259384155273,999.5199584960938,194.55381671602026,20.518772616041357
1557947876649,,34.9775275060846,99.1357421875,,,,,,,
1557947876658,,,67.51953125,,,,,,,
1557947876665,4.0,,,,,,,,,
1557947876709,,34.89322178521477,67.51953125,,,,,,,
1557947876719,,,,0.9330627655206762,0.004788403399288654,1.9584569931030273,10.250774383544922,,,20.575228560048455
1557947876720,,,,,,,,,196.67064260396887,
1557947876749,,34.467553791341686,67.51953125,,,,,,,
1557947876758,,,69.599609375,,,,,,,
1557947876782,,,,4.8180123997865625,1.0869675874710083,3.1651346683502197,4.768052577972412,,252.26371742866957,20.575228560048455
1557947876789,,35.0430261725817,69.599609375,,,,,,,
1557947876807,4.0,,,,,,,,,
1557947876829,,32.654645786383895,69.599609375,,,,,,,
1557947876838,,,,4.756470539529095,-0.933738648891449,1.6328455209732056,12.180500984191895,999.469970703125,,20.575228560048455
1557947876839,,,67.0654296875,,,,,,252.26371742866957,
1557947876871,,35.282733080215166,67.0654296875,,,,,,,
1557947876909,,34.56500780178616,67.0654296875,,,,,,,
1557947876919,,,,2.9856995843615346,0.49320554733276367,3.687070608139038,6.587646007537842,,235.2828767745882,20.518772616041357
1557947876921,,,70.2734375,,,,,,,
1557947876940,4.0,,,,,,,,,
1557947876963,,,,0.7495091341949535,0.2585737705230713,1.9728221893310547,9.096769332885742,,200.15729025072028,20.518772616041357
1557947876969,,36.935860807457935,70.2734375,,,,,,,
1557947877009,,35.91313524222158,70.2734375,,,,,,,
1557947877018,,,100.2294921875,,,,,,,
1557947877034,,,,,,,,999.5399780273438,,
1557947877035,,,,0.8317067404465273,0.6129156351089478,3.9408559799194336,7.894880294799805,,200.15729025072028,20.518772616041357
1557947877049,,37.217051448696466,100.2294921875,,,,,,,
1557947877082,4.0,,,,,,,,,
1557947877089,,37.331360919726905,100.2294921875,,,,,,,
1557947877105,,,,5.70225672971004,,,,,,
1557947877106,,,,,-1.3455413579940796,1.292868971824646,14.72793197631836,,186.40249137560852,20.458984080865914
1557947877129,,33.36876379078032,,,,,,,,
1557947877170,,,,2.0874326683652566,0.22026655077934265,3.758896589279175,10.992977142333984,,183.78734854619404,20.458984080865914
1557947877189,,35.08649498152225,,,,,,,,
1557947877198,,,101.298828125,,,,,,,
1557947877212,4.0,,,,,,,,,
1557947877215,,,,2.520371691676226,,,,999.5299682617188,,
1557947877229,,35.219461150813686,101.298828125,,-0.8571242094039917,2.3942017555236816,11.706449508666992,,186.56168942478325,20.419844016759985
1557947877269,,32.093935224352535,101.298828125,,,,,,,
1557947877283,,,71.3720703125,,,,,,,
1557947877296,,,,2.203427449561745,-0.8331822156906128,3.8307228088378906,9.757569313049316,,184.30233114923476,20.419844016759985
1557947877309,,31.814268618084153,71.3720703125,,,,,,,
1557947877341,,,,1.2040447336168774,,2.715024709701538,9.977835655212402,,,
1557947877342,4.0,,,,-0.6320692300796509,,,,185.79937201151813,20.419844016759985
1557947877349,,32.03065057674455,71.3720703125,,,,,,,
1557947877389,,33.71701227589754,71.3720703125,,,,,,,
1557947877402,,,100.5078125,,,,,,,
1557947877427,,,,1.0511811924028487,-0.6847416758537292,2.8778305053710938,8.210914611816406,999.5199584960938,182.8063148153268,20.388477857470363
1557947877449,,34.43085255530849,100.5078125,,,,,,,
1557947877469,,,,1.1614081310604427,,2.561795711517334,8.584410667419434,,,
1557947877470,4.0,,,,-0.14365209639072418,,,,188.97299208860784,20.41470100440809
1557947877489,,33.06507008534135,100.5078125,,,,,,,
1557947877500,,,68.525390625,,,,,,,
1557947877529,,34.32156816680816,68.525390625,,,,,,,
1557947877531,,,,2.4940995203273992,0.24899697303771973,2.1499931812286377,7.090428352355957,,196.96569311573512,24.8282108564195
1557947877569,,34.401294029468204,68.525390625,,,,,,,
1557947877597,,,,1.2796170132592637,0.2059013396501541,1.723825216293335,8.450334548950195,999.489990234375,194.98232912416847,26.155115326911766
1557947877598,4.0,,,,,,,,,
1557947877609,,39.41033727652477,,,,,,,,
1557947877649,,38.63424574006533,,,,,,,,
1557947877653,,,,1.4551384215694858,,1.5897499322891235,8.38808536529541,,,26.155115326911766
1557947877654,,,,,0.5937620401382446,,,,202.63257812668962,
1557947877658,,,68.88671875,,,,,,,
1557947877709,,36.17935420613966,68.88671875,,,,,,,
1557947877719,,,,3.116195788655986,,0.7996633648872375,12.223596572875977,,,
1557947877720,4.0,,,,0.4357447028160095,,,,192.25921466435443,25.180151673671425
1557947877749,,35.60501179380466,68.88671875,,,,,,,
1557947877760,,,62.4267578125,,,,,,,
1557947877781,,,,3.0677145335594087,0.7469909191131592,2.078166961669922,12.5779390335083,999.5099487304688,198.62922666922668,23.091991030510783
1557947877789,,34.15955489045966,62.4267578125,,,,,,,
1557947877829,,36.068162368369315,62.4267578125,,,,,,,
1557947877838,4.0,,54.7021484375,,,,,,,
1557947877855,,,,5.157271775240887,-0.8858546018600464,1.9632453918457031,14.684836387634277,,181.29594142378357,21.23581921806456
1557947877869,,36.56946528101737,54.7021484375,,,,,,,
1557947877916,,,,1.5832023148119303,,,,,,
1557947877917,,,,,-0.2537853717803955,3.098097085952759,10.413579940795898,,188.78087252763373,21.652021112214673
1557947877929,,33.782272273900915,54.7021484375,,,,,,,
1557947877968,4.0,,,,,,,,,
1557947877969,,34.61053099072689,,,,,,,,
1557947877985,5.0,,,1.6856374705203059,-0.31603461503982544,1.9967641830444336,8.661025047302246,999.5199584960938,192.68909311033667,22.18490552814618
1557947878009,,34.12772820552074,,,,,,,,
1557947878044,,,,2.5340377150440894,-0.42616790533065796,2.6384103298187256,7.238868713378906,,188.49970096026095,17.174400095061827
1557947878049,,34.63551619036602,,,,,,,,
1557947878058,,,159.3115234375,,,,,,,
1557947878083,5.0,,,,,,,,,
1557947878089,,34.1898753571091,159.3115234375,,,,,,,
1557947878100,,,,3.31280141934565,,,,,,
1557947878101,,,,,-0.12449848651885986,2.0159177780151367,6.281188011169434,,188.81749600196326,17.174400095061827
1557947878129,,34.30779956279656,159.3115234375,,,,,,,
1557947878138,,,158.5302734375,,,,,,,
1557947878167,4.0,,,2.4283212825429876,,1.9776105880737305,,999.5499877929688,,
1557947878168,,,,,-0.22505496442317963,,7.171831130981445,,187.13552093771273,19.13635295542454
1557947878189,,34.732733437931465,158.5302734375,,,,,,,
1557947878208,4.0,,,,,,,,,
1557947878229,,33.19102262254092,158.5302734375,,,,,,,
1557947878234,,,,1.532358741286276,0.507570743560791,1.9536685943603516,8.062474250793457,,196.35810680792747,17.95577916086682
1557947878269,,34.20418298857365,,,,,,,,
1557947878294,,,,5.48157501475023,-0.9624691009521484,1.3263877630233765,14.890737533569336,,182.87692531096639,20.600243073714484
1557947878309,,33.98852605703542,,,,,,,,
1557947878319,,,44.9658203125,,,,,,,
1557947878334,4.0,,,,,,,,,
1557947878349,,33.02870146781039,44.9658203125,,,,,,,
1557947878358,5.0,,,5.415529258837063,-0.5171475410461426,3.1220390796661377,13.621810913085938,999.5499877929688,181.32916346390653,21.86618458085123
1557947878389,,35.581684909950575,44.9658203125,,,,,,,
1557947878398,,,57.3931884765625,,,,,,,
1557947878415,,,,4.837635142880741,-1.6089035272598267,2.31758713722229,14.182053565979004,,176.5747197817083,21.86618458085123
1557947878449,,33.15981272616196,57.3931884765625,,,,,,,
1557947878455,5.0,,,,,,,,,
1557947878480,,,,2.3412013119809743,,,,,,
1557947878481,,,,,-1.3886369466781616,3.112462282180786,10.791864395141602,,173.52184378876603,21.574986154147386
1557947878489,,31.409636311941252,57.3931884765625,,,,,,,
1557947878498,,,43.798828125,,,,,,,
1557947878529,,30.630713081209983,43.798828125,,,,,,,
1557947878541,,,,2.3918288447280553,-0.40222588181495667,3.318363666534424,8.397662162780762,999.5099487304688,177.5316019636704,21.064662980308977
1557947878569,,28.27992881082682,43.798828125,,,,,,,
1557947878580,5.0,,,,,,,,,
1557947878605,,,,1.1085792158812608,,1.8483237028121948,8.74721622467041,,,
1557947878606,,,,,-0.7757213711738586,,,,183.33458896649222,21.064662980308977
1557947878609,,31.693301077112856,,,,,,,,
1557947878669,,31.999673260810614,0.0,,,,,,,
1557947878670,,,,2.929173131929283,-0.3878606855869293,2.7437551021575928,6.807912349700928,,194.06481615258235,21.064662980308977
1557947878703,5.0,,,,,,,,,
1557947878709,,30.431444211026175,,,,,,,,
1557947878737,,,,2.8554568936249236,-0.7182605266571045,2.0398597717285156,8.924386978149414,999.5599975585938,191.69696715225734,21.565018389044145
1557947878749,,35.69154060682207,,,,,,,,
1557947878787,,,,1.2019330350023179,,,,,,
1557947878789,,34.58621956074464,,,,,,,,
1557947878799,,,45.6201171875,,,,,,,
1557947878804,,,,,-0.37828385829925537,3.5625722408294678,9.86770248413086,,193.36103346050413,21.565018389044145
1557947878820,5.0,,,,,,,,,
1557947878829,,33.175532266747354,45.6201171875,,,,,,,
1557947878855,,,,3.4180467346014205,,,,,,
1557947878856,,,,,-0.9241618514060974,2.2840683460235596,12.822147369384766,,184.62718860653888,21.95654859592276
1557947878869,,34.310268542257745,45.6201171875,,,,,,,
1557947878878,,,43.06640625,,,,,,,
1557947878927,,,,3.0070365400260366,-0.038307227194309235,2.8826189041137695,12.467804908752441,999.5399780273438,191.8535014276556,22.08800654281141
1557947878929,,36.80139260226605,43.06640625,,,,,,,
1557947878938,5.0,,,,,,,,,
1557947878969,,34.731659966662974,43.06640625,,,,,,,
1557947878978,,,,4.014568264030096,-1.9105730056762695,2.3271639347076416,13.267468452453613,,177.8584265154555,22.47843509005691
1557947878979,,,41.6357421875,,,,,,,
1557947879009,,33.026990443192624,41.6357421875,,,,,,,
1557947879049,,31.111057945473345,41.6357421875,,,,,,,
1557947879050,,,,3.084492869187867,0.019153613597154617,3.8355112075805664,6.98508358001709,,202.70708183015608,22.945370741222504
1557947879064,5.0,,,,,,,,,
1557947879089,,29.702853584462858,,,,,,,,
1557947879107,6.0,,,0.6774269528089232,,,,999.6300048828125,,
1557947879108,,,,,-0.5602431893348694,1.5322890281677246,9.580398559570313,,184.593570415444,22.994347967536495
1557947879129,,29.493602698740773,0.0,,,,,,,
1557947879175,,,,2.6278790625349506,,2.829946517944336,7.10958194732666,,,
1557947879176,,,,,0.22026655077934265,,,,200.16028187357676,23.539329067965625
1557947879189,,31.614589387205672,,,,,,,,
1557947879192,6.0,,,,,,,,,
1557947879229,,29.422571838621767,0.0,,,,,,,
1557947879245,,,,1.4218982233519426,0.4213795065879822,1.8770540952682495,8.316259384155273,,194.6595207236153,23.539329067965625
1557947879269,,29.211918154958283,,,,,,,,
1557947879295,5.0,,,1.4090987702399314,0.5793967843055725,3.801992416381836,7.918822288513184,999.5899658203125,192.22734500168713,25.52586869602615
1557947879296,,,,,,,,,199.34238038084607,
1557947879307,5.0,,,,,,,,,
1557947879309,,31.279631531221234,0.0,,,,,,,
1557947879349,,45.454050717154686,,,,,,,,
1557947879357,,,,2.9832704107656753,,2.3798365592956543,,,,
1557947879358,,,,,0.24420857429504395,,12.391190528869629,,190.02391231506272,26.449385686710116
1557947879409,,41.80937356964567,,,,,,,,
1557947879424,,,,4.471469505154034,-1.5753847360610962,4.1611223220825195,13.142970085144043,,182.06936472463917,27.23545490656041
1557947879425,5.0,,,,,,,,181.94319747029067,
1557947879449,,39.94739567515555,,,,,,,,
1557947879456,,,1628.8818359375,,,,,,,
1557947879489,,38.936347218181794,1628.8818359375,,,,,,,
1557947879492,,,,4.38661026586974,-2.0254945755004883,3.998316764831543,11.562797546386719,999.6300048828125,181.83151021698256,28.035156584728128
1557947879529,,37.63110385412908,1628.8818359375,,,,,,,
1557947879549,,,,2.981567500259881,,,,,,
1557947879550,5.0,,,,-1.900996208190918,4.127603530883789,10.705673217773438,,178.47508331448094,27.694223103133496
1557947879569,,34.46188188192877,,,,,,,,
1557947879609,,34.21022284837123,,,,,,,,
1557947879618,,,44.7314453125,,,,,,,
1557947879633,,,,2.9840579838168777,-2.408566951751709,4.180276393890381,9.757569313049316,,,28.21028215600549
1557947879634,,,,,,,,,176.15164420413936,
1557947879669,,33.63414528430728,44.7314453125,,,,,,,
1557947879677,,,,2.8634366231398887,-1.7621324062347412,3.687070608139038,8.977059364318848,999.5700073242188,178.91493383665144,27.583147553070862
1557947879678,5.0,,,,,,,,,
1557947879709,,31.876370341385652,44.7314453125,,,,,,,
1557947879725,,,44.9365234375,,,,,,,
1557947879749,,30.851524602000637,44.9365234375,2.1778235994544133,-1.039083480834961,3.5721490383148193,7.813477039337158,,183.9953824479344,28.279144521329602
1557947879789,,30.310533507002326,44.9365234375,,,,,,,
1557947879812,,,,1.446642372100215,,3.19865345954895,8.919598579406738,,,27.971771837030836
1557947879813,5.0,,,,-1.2114660739898682,,,,183.45131689940786,
1557947879829,,34.46446226498558,,,,,,,,
1557947879869,,33.16258730321635,,,,,,,,
1557947879879,,,99.78322347005209,,,,,,,
1557947879883,,,,1.3337993800738552,,4.558559894561768,,999.5499877929688,,
1557947879884,,,,,-1.1492167711257935,,8.637083053588867,,183.42223395392193,29.41598275247826
1557947879928,,,,2.9444203125866477,-1.9249382019042969,3.8163576126098633,11.48618221282959,,,30.358854942402726
1557947879929,,32.99419671911647,99.78322347005209,,,,,,182.33100195098564,
1557947879945,5.0,,,,,,,,,
1557947879969,,33.205910888799934,99.78322347005209,,,,,,,
1557947879982,,,50.3173828125,,,,,,,
1557947879988,,,,1.6367343364692666,,,,,,
1557947879989,,,,,-0.4357447028160095,4.841075897216797,8.435969352722168,,186.97051722774347,31.944483821697208
1557947880009,,33.10900764939379,50.3173828125,,,,,,,
1557947880049,,32.36709759988261,50.3173828125,,,,,,,
1557947880061,,,,1.9045201566815777,-1.843535304069519,1.139639973640442,12.314576148986816,999.5499877929688,186.11653867581686,32.90486267034523
1557947880078,5.0,,,,,,,,,
1557947880089,,32.14867018629078,,,,,,,,
1557947880123,,,,1.6203588083651965,,,,,,
1557947880124,,,,,-0.13407529890537262,2.9927520751953125,7.7655930519104,,186.03241806599897,34.78591822031372
1557947880157,,32.9656247642764,,,,,,,,
1557947880189,,31.731656219310413,,,,,,,,
1557947880197,,,,2.1908606735773573,-0.35913026332855225,1.192312479019165,10.65778923034668,,179.71592378099717,34.94696124896053
1557947880207,,,158.30342610677081,,,,,,,
1557947880214,5.0,,,,,,,,,
1557947880229,,31.769960009521178,158.30342610677081,,,,,,,
1557947880244,6.0,,,2.1446072924530433,,2.3032219409942627,9.149441719055176,999.6300048828125,,36.623627025140394
1557947880245,,,,,-0.933738648891449,,,,167.89251115786826,
1557947880269,,29.876260040659417,158.30342610677081,,,,,,,
1557947880308,,,,1.6227263169641597,,,,,,
1557947880309,,,,,-0.9433154463768005,1.8100165128707886,10.260351181030273,,167.02305539728232,37.114418455077626
1557947880312,,28.32263022320822,,,,,,,,
1557947880332,6.0,,,,,,,,,
1557947880349,,31.198306217457628,0.0,,,,,,,
1557947880377,,,,0.6571606267131826,,2.7676970958709717,,,,
1557947880378,,,,,-0.29209262132644653,,9.93474006652832,,162.52338141359127,38.69069596162302
1557947880409,,30.769232375834616,,,,,,,,
1557947880433,9.0,,,0.5681255947819147,-0.047884032130241394,2.451662540435791,9.613917350769043,999.6300048828125,153.30649192114427,39.421315760627984
1557947880448,9.0,,,,,,,,,
1557947880449,,30.658867102154,0.0,,,,,,,
1557947880489,,33.79706156180723,,,,,,,,
1557947880497,,,,0.552895620166378,-0.5554547905921936,2.6192567348480225,9.9586820602417,,153.334482036363,40.36161696057887
1557947880529,,32.595383841474195,,,,,,,,
1557947880544,,,52.149810791015625,,,,,,,
1557947880564,9.0,,,1.113476010067998,-1.158793568611145,3.045424461364746,10.188525199890137,,148.43965428843003,40.9342176567588
1557947880569,,33.672829111675455,52.149810791015625,,,,,,,
1557947880629,,33.61703248903939,52.149810791015625,,,,,,,
1557947880631,17.0,,,1.1643583702582998,-1.3215993642807007,2.030282974243164,9.910798072814941,999.6699829101563,139.71067252915373,41.303269643415604
1557947880644,,,44.62890625,,,,,,,
1557947880669,,33.764973062882774,44.62890625,,,,,,,
1557947880680,17.0,,,,,,,,,
1557947880698,,,,0.9729192293992418,-1.0965443849563599,2.0207061767578125,9.336189270019531,,140.63356768980586,41.70443572184575
1557947880709,,34.57324090045523,44.62890625,,,,,,,
1557947880719,,,41.54296875,,,,,,,
1557947880748,,,,1.4928624089813696,-1.920149803161621,2.126051187515259,9.872490882873535,,136.80584771666068,42.033438503084405
1557947880749,,33.065917655135365,41.54296875,,,,,,,
1557947880789,,32.11109412208069,41.54296875,,,,,,,
1557947880801,17.0,,,,,,,,,
1557947880828,33.0,,,0.8019544985128124,,0.8810662031173706,11.725603103637695,999.5799560546875,,42.17451910480785
1557947880829,,35.73007237563638,41.54296875,,-2.628833532333374,,,,128.2699144240856,
1557947880885,,,,1.3288560986796991,-1.9536685943603516,1.2737152576446533,9.99220085144043,,128.85035756013164,40.93287187579195
1557947880889,,34.4860552664619,,,,,,,,
1557947880925,33.0,,,,,,,,,
1557947880929,,34.68897620379949,,,,,,,,
1557947880940,,,41.7138671875,,,,,,,
1557947880950,,,,2.6645800851221,,,,,,
1557947880951,,,,,-2.0015525817871094,0.569819986820221,11.524490356445313,,124.10899050247053,38.58769435605019
1557947880969,,33.84332969283876,41.7138671875,,,,,,,
1557947881009,,32.16633853200228,41.7138671875,,,,,,,
1557947881016,31.0,,,2.564097581027153,-1.0247182846069336,1.9584569931030273,9.996989250183105,999.5799560546875,109.81365728663314,36.96025110343176
1557947881049,,31.702099014126905,,,,,,,,
1557947881055,31.0,,,,,,,,,
1557947881079,,,,0.8652669586177425,,,,,,
1557947881080,,,,,-1.3215993642807007,2.427720546722412,9.738415718078613,,106.74274276409287,35.92227760729808
1557947881089,,29.80036056129611,0.0,,,,,,,
1557947881138,,,,1.4128497914347968,,,,,,
1557947881139,,,,,-0.8954314589500427,1.6950948238372803,8.47906494140625,,98.83505027137562,35.19403325954088
1557947881149,,30.71364133732057,,,,,,,,
1557947881179,31.0,,,,,,,,,
1557947881189,,31.00098128046218,0.0,,,,,,,
1557947881205,27.0,,,1.9444835076117004,-0.8906430602073669,2.3367409706115723,7.861361503601074,999.5899658203125,89.29973735982264,34.651839448598125
1557947881229,,30.451295491449045,,,,,,,,
1557947881248,,,,0.7762660698448193,,,,,,
1557947881249,,,,,-1.1444283723831177,1.6711528301239014,9.216479301452637,,,34.69250795288284
1557947881264,,,,,,,,,86.88142009172037,
1557947881269,,29.837070803303227,0.0,,,,,,,
1557947881306,27.0,,,,,,,,,
1557947881309,,31.80141113928634,,,,,,,,
1557947881332,,,,1.0685305833058882,-0.8379706144332886,2.2457611560821533,9.364919662475586,,81.01114570766123,34.36815541084836
1557947881369,,30.432867366365084,0.0,,,,,,,
1557947881395,23.0,,,1.0840764736881519,-1.2497732639312744,2.935291290283203,10.107122421264648,999.6300048828125,,34.4911598456499
1557947881396,,,,,,,,,76.38771552639872,
1557947881409,,34.30864088430647,,,,,,,,
1557947881435,23.0,,,,,,,,,
1557947881449,,35.94944506763594,,,,,,,,
1557947881460,,,41.181640625,,,,,,,
1557947881461,,,,2.5445740023597483,-0.8427590131759644,1.0342950820922852,11.807005882263184,,79.63171387269631,34.829011698097936
1557947881489,,35.070025877715516,41.181640625,,,,,,,
1557947881506,,,,3.0895448098810907,-0.9050082564353943,1.9105730056762695,12.621034622192383,,77.15023784533895,34.51304228182882
1557947881529,,35.0094607859413,41.181640625,,,,,,,
1557947881569,,34.00233981204383,41.181640625,,,,,,,
1557947881577,,,,3.100331867051018,,,,999.5700073242188,,
1557947881578,20.0,,,,-1.4748282432556152,0.8906430602073669,14.378377914428711,,79.71957059599015,34.346907643047665
1557947881581,,,48.42578125,,,,,,,
1557947881629,,35.81457602446924,48.42578125,,,,,,,
1557947881646,,,,3.52157157667268,-1.3886369466781616,1.9105730056762695,13.004106521606445,,80.2287338778579,34.81293067473975
1557947881669,,36.44532493855357,48.42578125,,,,,,,
1557947881679,,,53.8291015625,,,,,,,
1557947881692,,,,2.9776146498482174,-2.1547815799713135,1.115697979927063,12.041637420654297,,84.35106723066247,35.454338174559744
1557947881709,20.0,32.843306089653474,53.8291015625,,,,,,,
1557947881749,,32.652336260836485,53.8291015625,,,,,,,
1557947881776,19.0,,,2.2057383303281153,-0.45010992884635925,1.8531121015548706,7.358579158782959,999.6499633789063,84.39121508260376,36.640687830499004
1557947881789,,31.99736612869616,,,,,,,,
1557947881819,,,,2.489973274455214,-0.7230489253997803,1.3215993642807007,7.349001884460449,,89.06981270179244,36.58715641263113
1557947881829,,31.425988253237634,,,,,,,,
1557947881839,19.0,,39.39453125,,,,,,,
1557947881887,,,,2.7841909910766685,-0.6751648783683777,1.623268723487854,6.937199592590332,,90.97459536695811,37.59534490967684
1557947881889,,31.803893408430103,39.39453125,,,,,,,
1557947881929,,29.642159116907013,39.39453125,,,,,,,
1557947881959,18.0,,,2.809561147664927,-0.40701428055763245,2.3080103397369385,5.682637691497803,999.5499877929688,94.63610268665104,38.12361471742442
1557947881969,,29.97113681431869,,,,,,,,
1557947881971,18.0,,,,,,,,,
1557947882009,,34.911010535428304,,,,,,,,
1557947882020,,,,3.2002137887588398,-0.12449848651885986,2.169146776199341,6.247669219970703,,92.0376664999464,39.131191106294104
1557947882049,,38.94547101001139,,,,,,,,
1557947882089,,,,1.1510889495297982,-0.10534487664699554,2.6384103298187256,8.254010200500488,,93.85785727224146,39.223081425851845
1557947882109,,42.22936962105467,,,,,,,,
1557947882111,18.0,,,,,,,,,
1557947882119,,,72.3583984375,,,,,,,
1557947882136,14.0,,,7.960100333956863,,0.8810662031173706,17.299304962158203,999.6399536132813,,
1557947882137,,,,,-2.1499931812286377,,,,98.927387598765,39.131191106294104
1557947882149,,40.04588851018824,72.3583984375,,,,,,,
1557947882189,,33.241383526550166,72.3583984375,,,,,,,
1557947882200,,,,5.6721638587558605,,,,,,
1557947882201,,,,,-1.944091796875,3.5242648124694824,14.866795539855957,,96.52444508648443,37.52998813219846
1557947882229,,34.29448534290868,72.3583984375,,,,,,,
1557947882236,14.0,,,,,,,,,
1557947882238,,,86.1328125,,,,,,,
1557947882262,,,,6.339887674100768,,,,,,
1557947882263,,,,,-3.5003228187561035,2.5282769203186035,15.163676261901855,,94.79436499990942,36.10941839356668
1557947882269,,33.87187501519521,86.1328125,,,,,,,
1557947882309,,34.44927361052451,86.1328125,,,,,,,
1557947882324,4.0,,,6.25378242479695,,4.371812343597412,8.957905769348145,999.6399536132813,,
1557947882325,,,,,-2.049436569213867,,,,87.70224490541585,36.10401773629326
1557947882348,4.0,,,,,,,,,
1557947882369,,31.567904221078223,,,,,,,,
1557947882385,,,,1.661669232447157,-1.6855180263519287,2.2457611560821533,8.74721622467041,,86.39675669840545,35.99236171209109
1557947882409,,30.0376022687159,,,,,,,,
1557947882420,,,50.08184814453125,,,,,,,
1557947882449,,32.16670525838465,50.08184814453125,1.6711740896236962,,,,,,
1557947882450,,,,,-0.4357447028160095,1.4700398445129395,5.9555768966674805,,83.21659330009084,35.942316316372896
1557947882459,4.0,,,,,,,,,
1557947882489,,31.61709812195376,50.08184814453125,,,,,,,
1557947882512,,,,,,,,999.719970703125,,
1557947882513,,,,3.6893375796656773,0.07661445438861847,1.0534487962722778,6.530185222625732,,80.48191533001193,36.373066258892614
1557947882529,,29.200879818771213,,,,,,,,
1557947882569,,33.15144440458554,0.0,,,,,,,
1557947882596,4.0,,,2.337567121388618,0.3208230137825012,1.843535304069519,7.29154109954834,,78.35569110176533,36.99040338788718
1557947882629,,33.92575963269746,,,,,,,,
1557947882638,,,,2.7369560920669413,-1.2832920551300049,2.2170307636260986,12.022483825683594,,,36.948206208504075
1557947882639,,,,,,,,,83.05275072228056,
1557947882669,,34.81907311407416,,,,,,,,
1557947882677,,,46.337890625,,,,,,,
1557947882701,3.0,,,2.611319360026427,-1.2832920551300049,1.2066776752471924,15.091850280761719,999.6499633789063,,36.69890946338821
1557947882702,,,,,,,,,86.01539308609779,
1557947882709,,30.791456188671148,46.337890625,,,,,,,
1557947882727,3.0,,,,,,,,,
1557947882749,,32.63207997747487,46.337890625,,,,,,,
1557947882771,,,,3.6228815663095943,,2.097320795059204,13.195642471313477,,,
1557947882772,,,,,-0.8044517636299133,,,,85.85442601792806,35.575414225659195
1557947882789,,32.05800889004528,,,,,,,,
1557947882830,,,,2.9366125836048793,-0.9959878921508789,1.1540051698684692,12.530055046081543,,86.71701060820902,34.63827498989343
1557947882849,,31.325678459883267,0.0,,,,,,,
1557947882855,3.0,,,,,,,,,
1557947882889,,31.398495816978112,,,,,,,,
1557947882896,2.0,,,2.9004698668678492,,2.5522189140319824,7.832630634307861,999.6900024414063,,
1557947882897,,,,,0.4165911078453064,,,,83.54871124848273,33.98882197411272
1557947882929,,31.054346024379498,,,,,,,,
1557947882964,,,,1.0900821766805033,-0.5554547905921936,0.35434186458587646,9.96825885772705,,84.38630417659056,33.51134095512255
1557947882969,,30.810747003759,0.0,,,,,,,
1557947882989,2.0,,,,,,,,,
1557947883009,,31.60679043133383,,,,,,,,
1557947883032,,,,1.9203781874047394,0.2059013396501541,1.5179238319396973,7.947552680969238,,77.53354123137092,33.9785235996701
1557947883049,,30.944700367897045,0.0,,,,,,,
1557947883095,,,,,,,,999.699951171875,,
1557947883096,,,,2.2762848631751504,0.7613561153411865,1.2066776752471924,7.846996307373047,,76.24852310130302,33.05964403505457
1557947883109,,32.79962655144997,,,,,,,,
1557947883121,2.0,,,,,,,,,
1557947883149,,32.158085183671204,,,,,,,,
1557947883158,,,250.3662109375,,,,,,,
1557947883165,,,,0.5462565876456593,,,,,,
1557947883166,,,,,-0.10534487664699554,1.7094600200653076,9.834183692932129,,76.94076960387298,33.73232950091574
1557947883189,,31.710265894079022,250.3662109375,,,,,,,
1557947883211,,,,1.8120557964188981,-0.28730419278144836,1.2832920551300049,11.39520263671875,,79.63635157114271,33.66110592762647
1557947883229,,31.68866389943279,250.3662109375,,,,,,,
1557947883261,2.0,,,,,,,,,
1557947883269,,32.57291871670009,,,,,,,,
1557947883277,,,,,,,,999.6799926757813,,
1557947883278,3.0,,,1.6983371596188754,-1.2306196689605713,1.7621324062347412,12.214019775390625,,80.31650863888177,32.916106094818204
1557947883309,,33.32407001884326,,,,,,,,
1557947883321,,,251.3037109375,,,,,,,
1557947883340,,,,1.8502136339093727,,,,,,
1557947883341,,,,,-0.6272808313369751,0.8906430602073669,11.529278755187988,,81.36425965756172,33.00212176408817
1557947883369,,33.12103825803359,251.3037109375,,,,,,,
1557947883383,3.0,,,,,,,,,
1557947883401,,,,2.2234551413634405,,1.8100165128707886,10.74876880645752,,,
1557947883402,,,,,-1.7381904125213623,,,,79.60306805931725,33.15026457092669
1557947883409,,32.35911363026255,251.3037109375,,,,,,,
1557947883449,,32.93704302798252,,,,,,,,
1557947883482,2.0,,,2.0815608940811274,,2.978386878967285,9.044096946716309,999.6699829101563,,33.8688646961163
1557947883483,,,,,-1.7190368175506592,,,,78.20123320387466,
1557947883489,,31.793647510242124,,,,,,,,
1557947883501,,,50.6728515625,,,,,,,
1557947883506,2.0,,,,,,,,,
1557947883527,,,,1.9920729660320802,,,,,,
1557947883528,,,,,-1.944091796875,1.867477297782898,10.442310333251953,,78.37581966924938,33.8688646961163
1557947883531,,30.442883825131453,50.6728515625,,,,,,,
1557947883589,,32.210775998256594,50.6728515625,,,,,,,
1557947883593,,,,2.199925039921682,-1.0582371950149536,1.742978811264038,7.894880294799805,,77.14892644901829,33.73707152041897
1557947883629,,30.847599876391026,50.6728515625,,,,,,,
1557947883636,2.0,,,,,,,,,
1557947883663,3.0,,,1.234840305366524,-0.7565677165985107,1.1540051698684692,8.68017864227295,999.719970703125,79.40644057349095,33.62290885690886
1557947883669,,31.31426339278379,,,,,,,,
1557947883709,,34.12288307537222,0.0,,,,,,,
1557947883712,,,,1.303262309060362,-1.4987702369689941,1.6903064250946045,9.781511306762695,,,34.28848304771726
1557947883713,,,,,,,,,79.18568202932693,
1557947883749,,32.89132258337497,,,,,,,,
1557947883773,3.0,,,,,,,,,
1557947883774,,,,1.7996393584197738,,0.7086837291717529,,,,
1557947883775,,,,,-0.7661445140838623,,11.12226390838623,,81.26337093333143,34.183330314387504
1557947883789,,32.1007832152376,,,,,,,,
1557947883802,,,37.646484375,,,,,,,
1557947883841,2.0,,,3.728366247335095,-0.28730419278144836,0.6512228846549988,13.114239692687988,999.75,83.06951883669296,34.101174193383635
1557947883849,,32.25802860318356,37.646484375,,,,,,,
1557947883889,,30.710281447923954,37.646484375,,,,,,,
1557947883902,2.0,,,3.4960813383596023,-0.7326257228851318,1.5466543436050415,13.075932502746582,,84.82365484952481,34.40668694687314
1557947883929,,32.01455162943683,,,,,,,,
1557947883969,,33.66787245960695,0.0,,,,,,,
1557947883971,,,,1.0922910496600062,-0.17238251864910126,1.0534487962722778,10.322600364685059,,87.37007914569978,34.11905648016466
1557947884009,,32.443911699922296,,,,,,,,
1557947884019,2.0,,,,,,,,,
1557947884025,,,,0.9907667545978197,,1.1300631761550903,8.943540573120117,999.75,,34.67419814191338
1557947884026,,,,,0.15322890877723694,,,,92.42684384866459,
1557947884049,,34.32009949685845,,,,,,,,
1557947884062,,,431.6015625,,,,,,,
1557947884104,,,,1.0691539870888151,,1.1300631761550903,,,,
1557947884105,,,,,-0.22026655077934265,,8.766369819641113,,91.626222734534,34.910600109422354
1557947884110,,33.660396672441806,431.6015625,,,,,,,
1557947884149,,31.02832312064191,431.6015625,,,,,,,
1557947884156,2.0,,,1.8987004604243207,0.1628057211637497,1.4460978507995605,7.937975883483887,,88.1052738777708,34.9865688607571
1557947884158,,,408.896484375,,,,,,,
1557947884189,,31.619370168305473,408.896484375,,,,,,,
1557947884229,,31.666172587791685,408.896484375,,,,,,,
1557947884234,,,,,,,,999.719970703125,,
1557947884235,,,,1.8788400110952717,-0.7182605266571045,1.7860745191574097,8.87171459197998,,91.92382090686067,35.4971833871294
1557947884269,,33.19754001512153,,,,,,,,
1557947884281,2.0,,,1.8715440690041822,-1.0342950820922852,2.6192567348480225,7.890091896057129,,89.3073530207472,35.887184750226304
1557947884329,,34.52752085214409,,,,,,,,
1557947884340,,,,1.415756980688826,-1.8914192914962769,2.5522189140319824,10.006566047668457,,96.19879532723661,36.330290795655294
1557947884369,,35.401285253912384,,,,,,,,
1557947884383,,,82.56033761160714,,,,,,,
1557947884409,,33.963814458856746,82.56033761160714,,,,,,,
1557947884410,2.0,,,1.4627354619815167,-4.352658748626709,1.6519991159439087,15.939397811889648,999.7099609375,101.36428981159884,36.618301940458196
1557947884449,,39.46770075555851,82.56033761160714,,,,,,,
1557947884467,,,47.5341796875,,,,,,,
1557947884477,,,,3.1958013407777393,-2.298433542251587,3.620033025741577,11.562797546386719,,100.09118353144345,36.93643259742735
1557947884489,,35.02817735325117,47.5341796875,,,,,,,
1557947884529,,31.74901201286172,47.5341796875,,,,,,,
1557947884538,,,53.564453125,,,,,,,
1557947884541,,,,4.984959296057452,,,,,,
1557947884542,2.0,,,,-3.687070608139038,2.1547815799713135,13.832500457763672,,103.82681889419854,36.93643259742735
1557947884589,,29.545716241548234,53.564453125,,,,,,,
1557947884598,,,,5.001048931722271,-0.6799532771110535,3.064578056335449,5.716156482696533,999.7699584960938,105.06983136087081,36.92221539018004
1557947884599,,,,,,,,,93.83620557257251,
1557947884629,,33.140539558329955,53.564453125,,,,,,,
1557947884668,,,,2.8912131870959126,-0.8619126081466675,-0.2298433631658554,7.530961513519287,,109.68981229660247,37.426595347311284
1557947884669,2.0,,,,,,,,,
1557947884671,,34.55681055505994,,,,,,,,
1557947884709,,44.59561590605206,,,,,,,,
1557947884721,,,44.66761997767857,,,,,,,
1557947884732,,,,4.085198709424476,,2.9927520751953125,5.620388507843018,,,
1557947884733,,,,,-1.2258312702178955,,,,94.3484014584318,37.988814010061596
1557947884749,,32.32579632514708,44.66761997767857,,,,,,,
1557947884789,,35.473071976858435,44.66761997767857,,,,,,,
1557947884798,,,65.224609375,,,,,,,
1557947884801,2.0,,,4.118921367223477,-0.4165911078453064,2.0207061767578125,3.9588124752044678,999.72998046875,101.60715767810615,38.4253820386669
1557947884849,,34.84864292523371,65.224609375,,,,,,,
1557947884859,,,,0.37055888530289094,,1.9057846069335938,9.680954933166504,,,39.31780844067219
1557947884860,,,,,-1.0965443849563599,,,,109.33606996929834,
1557947884889,,34.59724506241642,65.224609375,,,,,,,
1557947884926,,,,5.297808629578343,,0.8475474119186401,14.660894393920898,,,
1557947884927,2.0,,,,-2.6001031398773193,,,,114.69323322214944,38.15678282369615
1557947884929,,33.87995495278945,,,,,,,,
1557947884969,,33.70384119037246,,,,,,,,
1557947884994,,,,5.220929815563324,,1.0678139925003052,14.622587203979492,999.7699584960938,,
1557947884995,,,,,-1.8962076902389526,,,,116.73851970873142,38.601685160087094
1557947885009,,34.62966545117295,,,,,,,,
1557947885021,,,64.62681361607143,,,,,,,
1557947885036,,,,6.413480818249532,-1.0055646896362305,1.5849615335464478,15.963339805603027,,116.6101804542269,37.710741456136475
1557947885061,2.0,,,,,,,,,
1557947885069,,32.89862901184334,64.62681361607143,,,,,,,
1557947885104,,,,3.9436350665143696,,,,,,
1557947885105,,,,,-1.259350061416626,1.4508862495422363,12.328941345214844,,112.72231383525059,36.98296950615301
1557947885109,,31.328456329998126,64.62681361607143,,,,,,,
1557947885149,,31.29376159816107,,,,,,,,
1557947885159,,,,4.006599703804142,,0.033518824726343155,,999.7899780273438,,
1557947885160,,,,,-0.7996633648872375,,9.561244010925293,,102.42007313274269,41.88687339002122
1557947885186,2.0,,,,,,,,,
1557947885189,,29.020201816050417,0.0,,,,,,,
1557947885229,,30.863950563429384,,,,,,,,
1557947885230,,,,3.3830185754746953,-0.40701428055763245,0.2825157940387726,7.238868713378906,,107.5580351245606,44.084125576772585
1557947885231,,,,,,,,,112.38307199955437,
1557947885269,,34.1314253443545,0.0,,,,,,,
1557947885287,,,,3.290118195286096,,-0.05746084079146385,6.285976409912109,,,
1557947885312,2.0,,,,,,,,,
1557947885329,,31.846145472660933,,,,,,,,
1557947885353,,,,3.3761320687988023,-2.5761611461639404,0.727837324142456,4.667496204376221,999.72998046875,121.50746707026104,43.68363602693593
1557947885369,,36.275097653473985,,,,,,,,
1557947885380,,,134.671142578125,,,,,,,
1557947885409,,37.971548616023135,134.671142578125,,,,,,,
1557947885434,,,,2.860362731765919,,1.403002142906189,8.565256118774414,,,
1557947885436,,,,,-3.581725835800171,,,,113.5967419735523,43.604243742171036
1557947885448,2.0,,,,,,,,,
1557947885449,,41.663553566551116,134.671142578125,,,,,,,
1557947885474,,,,3.4229791680030015,-2.4612393379211426,1.4413094520568848,6.6163763999938965,,117.96059081540847,44.236184744403175
1557947885489,,37.34780083937357,,,,,,,,
1557947885529,,33.61647381807225,,,,,,,,
1557947885539,,,52.03125,,,,,,,
1557947885555,,,,4.065133283055894,,-0.33039984107017517,14.31134033203125,999.7699584960938,,
1557947885556,,,,,-3.3662476539611816,,,,122.06905888419783,44.742150252659606
1557947885577,2.0,,,,,,,,,
1557947885589,,36.243147075306645,52.03125,,,,,,,
1557947885603,,,,4.429671998980814,,,,,,
1557947885604,,,,,5.0900726318359375,1.7046716213226318,12.448651313781738,,153.1416248149585,44.86546632701867
1557947885629,,37.81544158075528,52.03125,,,,,,,
1557947885634,,,0.0,,,,,,,
1557947885669,,31.22640234709619,,,,,,,,
1557947885687,,,,5.7546116124001205,3.2369606494903564,-0.1388636976480484,14.708778381347656,,,45.92450416143603
1557947885688,,,,,,,,,147.69177589507032,
1557947885701,2.0,,,,,,,,,
1557947885709,,31.496812029858916,,,,,,,,
1557947885732,,,,6.1524516359588315,4.644751071929932,1.8962076902389526,11.615469932556152,999.7899780273438,131.12045289305541,47.02914115522262
1557947885749,,28.715112139643967,0.0,,,,,,,
1557947885794,,,,2.871113679777767,1.7381904125213623,1.4844050407409668,7.349001884460449,,124.00418807984585,48.618309309502344
1557947885809,2.0,29.659754169740197,,,,,,,,
1557947885849,,27.10775609478727,0.0,,,,,,,
1557947885852,,,,4.723685405660024,0.8954314589500427,2.0207061767578125,5.462371349334717,,117.21282170507544,48.912676872169556
1557947885889,,30.110668843233015,,,,,,,,
1557947885917,,,,4.961893785476922,,,,999.7799682617188,,
1557947885918,3.0,,,,2.3750481605529785,0.8475474119186401,6.592434406280518,,122.36402743369402,48.46885535852823
1557947885928,3.0,,,,,,,,,
1557947885929,,34.10475652423588,0.0,,,,,,,
1557947885969,,34.49831248641577,,,,,,,,
1557947885979,,,,4.354396588888099,,1.1779472827911377,,,,
1557947885980,,,,,4.256890773773193,,3.575740337371826,,147.5249416944036,49.91532736436194
1557947886009,,30.774500470122565,,,,,,,,
1557947886018,,,40.87890625,,,,,,,
1557947886043,3.0,,,3.9323270210883083,5.123591423034668,0.4118026793003082,8.522160530090332,,140.58455425232185,50.80442946188847
1557947886069,,35.1558769548894,40.87890625,,,,,,,
1557947886109,,37.983599468821694,40.87890625,,,,,,,
1557947886110,,,,5.15124638854217,8.183381080627441,-2.322375535964966,1.0905588865280151,999.7599487304688,,52.55758848705359
1557947886111,,,,,,,,,135.18509846813,
1557947886116,,,61.005859375,,,,,,,
1557947886149,,34.04654504678255,61.005859375,,,,,,,
1557947886167,3.0,,,,,,,,,
1557947886169,,,,6.477885554038502,11.66455078125,-5.525817394256592,2.2445640563964844,,165.34000116314277,52.88270363315066
1557947886190,,30.93022742013268,61.005859375,,,,,,,
1557947886208,,,59.599609375,,,,,,,
1557947886229,,29.739370699881317,59.599609375,,,,,,,
1557947886244,,,,6.106505517679581,14.714763641357422,-4.764461517333984,2.187103271484375,,162.56844700173502,54.01462978338926
1557947886269,,29.104440227377786,59.599609375,,,,,,,
1557947886285,3.0,,,,,,,,,
1557947886311,2.0,,,5.929348138036846,,-3.931279182434082,1.1528080701828003,999.7699584960938,,
1557947886312,,,,,12.569559097290039,,,,141.80243162284847,53.97341994799449
1557947886329,,29.8233696599906,,,,,,,,
1557947886369,,30.924455789681993,,,,,,,,
1557947886373,,,,6.414676539293292,12.51209831237793,-3.045424461364746,1.5550340414047241,,140.76775358623993,54.47944585857247
1557947886409,,30.524618747430456,0.0,,,,,,,
1557947886413,2.0,,,,,,,,,
1557947886439,,,,7.629864751134549,11.860875129699707,-1.7908629179000854,0.5015852451324463,,,54.70329132359884
1557947886440,,,,,,,,,118.57166051969281,
1557947886449,,31.56338521195972,,,,,,,,
1557947886489,,36.17835475838102,0.0,,,,,,,
1557947886498,0.0,,,8.24130391813068,9.672574996948242,-1.335964560508728,-0.04908113554120064,999.8099975585938,86.12279781079621,54.08715079864629
1557947886537,0.0,,,,,,,,,
1557947886549,,40.030955495199194,,,,,,,,
1557947886564,,,,8.566316742435939,14.283807754516602,-6.2201361656188965,1.3299790620803833,,98.76196041706726,53.95720464135203
1557947886589,,38.117448981711824,,,,,,,,
1557947886598,,,41.1474609375,,,,,,,
1557947886624,,,,10.099336099994124,,-4.960785865783691,1.382651448249817,,,53.77183329729743
1557947886625,,,,,15.605406761169434,,,,82.33068361379435,
1557947886629,,38.18796025745759,41.1474609375,,,,,,,
1557947886669,,48.84743574877522,41.1474609375,,,,,,,
1557947886679,0.0,,,,,,,,,
1557947886698,,,,,,,,999.8699951171875,,
1557947886699,,,,9.104192132863291,13.675680160522461,-8.652645111083984,5.586869716644287,,75.53252803098894,53.55847473901432
1557947886709,,48.16418631776341,,,,,,,,
1557947886749,,48.29833761079936,,6.879881079777106,,-8.283937454223633,,,,
1557947886750,,,,,12.48815631866455,,3.6092591285705566,,79.74339429581516,52.88979186734198
1557947886759,,,42.0166015625,,,,,,,
1557947886795,0.0,,,,,,,,,
1557947886809,,51.298598827593665,42.0166015625,,,,,,,
1557947886820,,,,5.0456522591207875,10.357316970825195,-8.188169479370117,2.49834942817688,,79.13289832742106,52.789583294873744
1557947886849,,45.94571921106784,42.0166015625,,,,,,,
1557947886858,,,62.87109375,,,,,,,
1557947886880,,,,,,,,999.8999633789063,,
1557947886881,1.0,,,5.768105900970825,8.485051155090332,-7.647080421447754,1.6603789329528809,,78.46627869461702,51.76118273299108
1557947886889,,48.037156407922204,62.87109375,,,,,,,
1557947886921,1.0,,,,,,,,,
1557947886929,,44.82537985894857,62.87109375,,,,,,,
1557947886936,,,87.08984375,,,,,,,
1557947886948,,,,6.212477084142532,8.245630264282227,-7.632715225219727,2.7521347999572754,,77.40820726010116,50.781296504636174
1557947886969,,42.941570786143444,87.08984375,,,,,,,
1557947886992,,,,8.823982711816559,5.803544998168945,-7.857769966125488,4.485537052154541,,,51.31023399711549
1557947886993,,,,,,,,,64.33375669802518,
1557947887028,,38.14033906808279,,,,,,,,
1557947887029,,,87.08984375,,,,,,,
1557947887050,1.0,,,,,,,,,
1557947887069,,34.77706403907578,,,,,,,,
1557947887076,,,,10.420493152978391,,,,999.8299560546875,,
1557947887077,3.0,,,,5.3342814445495605,-6.5696892738342285,4.140771865844727,,74.52413256230659,51.23836553940237
1557947887109,,39.00702336965908,,,,,,,,
1557947887135,,,,8.820584099560634,6.186617374420166,-7.0772600173950195,2.369062662124634,,86.0638805990157,52.06246282569319
1557947887149,,36.58005431032597,,,,,,,,
1557947887157,,,52.3876953125,,,,,,,
1557947887180,,,,6.800130551150861,,-3.7924153804779053,1.3108254671096802,,,
1557947887181,3.0,,,,4.400542736053467,,,,93.31647598805876,52.51533086311303
1557947887189,,41.129752903738925,52.3876953125,,,,,,,
1557947887229,,37.50688750956319,52.3876953125,,,,,,,
1557947887236,,,43.095703125,,,,,,,
1557947887250,,,,6.146229600792998,,,,999.8299560546875,,
1557947887251,,,,,7.216124057769775,-4.185064792633057,-0.8870517015457153,,95.2412301263575,52.51533086311303
1557947887289,,37.39149042249795,43.095703125,,,,,,,
1557947887305,3.0,,,,,,,,,
1557947887306,,,,5.885149690317266,10.012551307678223,-7.2352776527404785,-2.3044190406799316,,114.83256908121771,52.09357123991305
1557947887329,,37.229193999273235,43.095703125,,,,,,,
1557947887339,,,50.4052734375,,,,,,,
1557947887340,,,50.4052734375,,,,,,,
1557947887369,,36.960617346111576,50.4052734375,,,,,,,
1557947887374,,,,5.266923602794225,10.831368446350098,-6.5696892738342285,-3.357867956161499,,111.10308088871565,50.7241577740308
1557947887409,,37.650471021299346,50.4052734375,,,,,,,
1557947887417,,,52.2021484375,,,,,,,
1557947887433,1.0,,,5.7721624760273516,10.687716484069824,-6.268020153045654,-3.822343111038208,999.8200073242188,,49.514745722313
1557947887434,1.0,,,,,,,,99.52950975523663,
1557947887449,,46.690902243714696,52.2021484375,,,,,,,
1557947887489,,46.73750121771349,52.2021484375,,,,,,,
1557947887501,,,,6.463975701730212,11.065999984741211,-5.640739440917969,-3.8558619022369385,,62.253847982540435,47.82666584230425
1557947887549,,42.682822577074894,,,,,,,,
1557947887561,1.0,,,5.618340852668836,11.080365180969238,-4.802768707275391,-1.9069817066192627,,38.8203500346296,46.30399737476327
1557947887589,,38.37790717326263,,,,,,,,
1557947887597,,,46.103515625,,,,,,,
1557947887629,,36.8839789721668,46.103515625,,,,,,,
1557947887632,,,,4.043362422334254,9.639056205749512,-4.5154643058776855,0.6739677786827087,999.8599853515625,32.299206433992424,45.235936987701876
1557947887669,,34.922852650991146,46.103515625,,,,,,,
1557947887697,1.0,,,3.788743341906369,8.078036308288574,-5.04218864440918,3.0202853679656982,,25.308582950565267,44.200454027338246
1557947887709,,33.6145139672127,,,,,,,,
1557947887767,,,,4.033772470407519,8.015787124633789,-5.702988624572754,3.6810851097106934,,19.61870752286444,44.04917863822656
1557947887768,,36.11164540061047,,,,,,,,
1557947887809,,42.017865599544926,,,,,,,,
1557947887821,,,129.12109375,,,,,,,
1557947887825,1.0,,,4.058544639606025,8.317456245422363,-7.881711959838867,4.854243755340576,999.8699951171875,19.902185986629377,44.864575548858504
1557947887849,,40.146092357828785,129.12109375,,,,,,,
1557947887889,,40.803422786955494,129.12109375,,,,,,,
1557947887896,,,100.322265625,4.899835560433341,8.513781547546387,-3.931279182434082,3.6619315147399902,,18.3741855843856,45.42697594921308
1557947887929,,42.490893240665166,100.322265625,,,,,,,
1557947887937,,,,3.8918086323516947,,-6.952761650085449,2.9005753993988037,,,44.9132512145226
1557947887938,,,,,9.840168952941895,,,,20.88007953802571,
1557947887954,1.0,,,,,,,,,
1557947887969,,38.79852480430961,100.322265625,,,,,,,
1557947887976,,,127.55859375,,,,,,,
1557947888024,,,,4.290946949481734,9.93593692779541,-8.83939266204834,3.02986216545105,999.8499755859375,7.616098056671092,44.77465951429077
1557947888029,,41.75676807760071,127.55859375,,,,,,,
1557947888066,,,,6.394070692027766,,,,,,
1557947888067,,,,,11.051634788513184,-8.398859977722168,3.489548921585083,,7.908694822977964,43.91651323734438
1557947888069,,39.409513294621924,127.55859375,,,,,,,
1557947888076,,,64.3603515625,,,,,,,
1557947888089,1.0,,,,,,,,,
1557947888109,,40.566819126414096,64.3603515625,,,,,,,
1557947888130,,,,4.882074162927497,,-8.365341186523438,1.6124948263168335,,,44.52527392098046
1557947888131,,,,,9.648633003234863,,,,353.67562433095395,
1557947888149,,39.169240426365704,64.3603515625,,,,,,,
1557947888156,,,50.869140625,,,,,,,
1557947888189,,38.25308575111072,50.869140625,,,,,,,
1557947888201,,,,5.506542129647783,,,,999.8200073242188,,
1557947888202,,,,,7.350199222564697,-8.734047889709473,3.556586742401123,,328.90841199240083,45.28631323392096
1557947888218,1.0,,,,,,,,,
1557947888229,,44.673942812985786,50.869140625,,,,,,,
1557947888238,,,64.9267578125,,,,,,,
1557947888253,,,,7.8845805670164495,6.3302693367004395,-8.44195556640625,3.4799721240997314,,,46.50419259561806
1557947888254,,,,,,,,,10.422726947014155,
1557947888289,,38.88364156220021,64.9267578125,,,,,,,
1557947888329,,37.46247468390952,64.9267578125,,,,,,,
1557947888336,,,,8.987577978652718,5.152322292327881,-7.675810813903809,3.1687259674072266,,127.1268549457273,46.878994439996276
1557947888357,1.0,,,,,,,,,
1557947888369,,38.17622620330363,,,,,,,,
1557947888385,,,,8.501527088093635,5.032611846923828,-7.067683219909668,2.009932279586792,999.8899536132813,150.79203974047414,47.37256782991921
1557947888409,,35.9593679156579,,,,,,,,
1557947888418,,,42.568359375,,,,,,,
1557947888446,,,,9.190954687696435,4.405331134796143,-7.690176010131836,0.9804255962371826,,181.40266995975412,46.5309590872541
1557947888449,,36.11333402846078,42.568359375,,,,,,,
1557947888489,1.0,,,,,,,,,
1557947888509,,34.75865491028025,42.568359375,,,,,,,
1557947888515,,,,7.265097584603964,,-7.1490864753723145,0.4297592043876648,,,45.18816369209045
1557947888516,,,,,5.530605792999268,,,,196.33885933484635,
1557947888549,,36.14570373003044,,,,,,,,
1557947888579,,,,5.934335929657622,,,,999.8699951171875,,
1557947888581,,,,,8.504204750061035,-5.770026206970215,-2.8119897842407227,,198.82666011737513,43.90330283703038
1557947888589,,32.84008336920125,,,,,,,,
1557947888621,1.0,,,,,,,,,
1557947888629,,35.01670201109768,,,,,,,,
1557947888638,,,43.45703125,5.49668715146799,10.256759643554688,-8.322244644165039,-1.5478514432907104,,227.73523087377896,42.38171920887924
1557947888669,,34.026135663905755,43.45703125,,,,,,,
1557947888705,,,,2.65684044951213,8.973467826843262,-8.269572257995605,1.7417817115783691,,204.62284060931802,40.92200066650955
1557947888709,,33.72540059603574,43.45703125,,,,,,,
1557947888717,,,43.06640625,,,,,,,
1557947888738,1.0,,,,,,,,,
1557947888758,0.0,,,2.5494403673803814,9.026140213012695,-6.694188117980957,1.3730746507644653,999.8599853515625,246.11353506223412,39.72027255065622
1557947888769,,34.867086871173456,43.06640625,,,,,,,
1557947888809,,34.4540171556697,43.06640625,,,,,,,
1557947888822,,,,2.857566720312083,,-6.066906929016113,0.23822307586669922,,,
1557947888823,,,,,8.552088737487793,,,,269.2391622333066,39.62057605873435
1557947888849,,32.377461931054874,,,,,,,,
1557947888856,0.0,,,,,,,,,
1557947888889,,34.804429359316764,,,,,,,,
1557947888893,,,,3.52183506425963,,-4.711789131164551,,,,
1557947888894,,,,,7.891288757324219,,0.9900023937225342,,291.7065094325516,39.37156293708863
1557947888897,,,44.3408203125,,,,,,,
1557947888929,,35.84332520274696,44.3408203125,,,,,,,
1557947888964,2.0,,,3.7890977366273946,,-4.807557106018066,1.0666168928146362,999.7899780273438,,39.03613663197249
1557947888965,,,,,7.967903137207031,,,,303.28770647223894,
1557947888969,,31.68848910391833,44.3408203125,,,,,,,
1557947888980,,,38.06640625,,,,,,,
1557947888984,2.0,,,,,,,,,
1557947889026,,,,3.7855621214770103,8.56645393371582,-5.664681434631348,-0.09217676520347595,,,39.6287783408021
1557947889027,,,,,,,,,299.7860289942189,
1557947889029,,31.936958000291256,38.06640625,,,,,,,
1557947889069,,33.48164153025256,38.06640625,,,,,,,
1557947889082,,,,2.43712104394696,,-5.056553840637207,,,,
1557947889083,,,,,6.89530086517334,,0.8846575021743774,,298.2674183945366,38.823834506765536
1557947889109,,32.84360578339195,,,,,,,,
1557947889110,2.0,,,,,,,,,
1557947889149,,37.33218295300976,,,,,,,,
1557947889150,1.0,,,1.9966823956608235,4.9799394607543945,-4.280832767486572,1.5837644338607788,999.8399658203125,298.39989674367814,38.14564287694739
1557947889189,,37.34426926769821,,,,,,,,
1557947889201,,,239.15867396763394,,,,,,,
1557947889207,,,,1.6240751862668128,6.4164605140686035,-7.01979923248291,2.5749640464782715,,278.6915361577681,38.581862205543686
1557947889233,1.0,,,,,,,,,
1557947889248,,40.656598966779185,,,,,,,,
1557947889249,,,239.15867396763394,,,,,,,
1557947889274,,,,5.072518314123581,10.912771224975586,-9.730035781860352,2.369062662124634,,288.4317274236648,37.74069442546802
1557947889289,,39.52083220663564,239.15867396763394,,,,,,,
1557947889329,,41.02561060186525,,,,,,,,
1557947889332,,,,5.470284731635641,11.994950294494629,-11.678915977478027,1.3922282457351685,999.8499755859375,286.19289386657215,37.70212251268714
1557947889358,1.0,,,,,,,,,
1557947889369,,40.656743834696066,,,,,,,,
1557947889376,,,98.2373046875,,,,,,,
1557947889399,,,,3.986011004695449,8.604761123657227,-8.346187591552734,2.1344308853149414,,279.3092721266824,37.907914839977074
1557947889409,,43.93298206524734,98.2373046875,,,,,,,
1557947889449,,31.563197409657064,98.2373046875,,,,,,,
1557947889455,,,0.0,3.64014009185164,,-5.377377033233643,1.7274165153503418,,,39.58661356428274
1557947889456,,,,,5.640739440917969,,,,276.0829366495785,
1557947889484,1.0,,,,,,,,,
1557947889509,,32.23132633104481,,,,,,,,
1557947889530,0.0,,,3.7516010681228913,4.486733913421631,-4.323928356170654,1.2437877655029297,999.8499755859375,212.31501331296465,40.96083504695475
1557947889549,,31.758201928187614,0.0,,,,,,,
1557947889589,,32.612655955186945,,6.137481739149101,3.3710360527038574,-4.376600742340088,-0.9636662006378174,,254.74823289020753,42.179617320025514
1557947889615,0.0,,,,,,,,,
1557947889629,,35.72404203582573,,,,,,,,
1557947889642,,,60.67587716238839,,,,,,,
1557947889656,,,,5.389562706698345,,-5.185841083526611,0.4728548228740692,,,
1557947889657,,,,,4.371812343597412,,,,218.58119278207448,41.744580309292544
1557947889669,,36.23649471193398,60.67587716238839,,,,,,,
1557947889709,,36.42150000423836,60.67587716238839,,,,,,,
1557947889713,1.0,,,5.304493514321744,,-10.606313705444336,0.34356793761253357,999.8699951171875,,
1557947889714,,,,,6.04775333404541,,,,219.43823125874928,42.09335034696836
1557947889716,,,49.951171875,,,,,,,
1557947889743,1.0,,,,,,,,,
1557947889769,,34.61555267236962,49.951171875,,,,,,,
1557947889787,,,,8.469487344659514,10.826580047607422,-11.994950294494629,3.5182793140411377,,200.48918280286955,42.432183367321535
1557947889809,,36.06486499485582,49.951171875,,,,,,,
1557947889817,,,57.373046875,,,,,,,
1557947889828,,,,7.1950885021288515,,,,,,
1557947889829,,,,,13.35964584350586,-10.113107681274414,2.292448043823242,,,43.864680417630716
1557947889844,,,,,,,,,234.67254473073422,
1557947889849,,40.568171621427894,57.373046875,,,,,,,
1557947889869,1.0,,,,,,,,,
1557947889889,,40.95939239736993,57.373046875,,,,,,,
1557947889911,,,,7.3247833115747145,,,,999.8299560546875,,
1557947889912,,,,,10.031704902648926,-4.63517427444458,-3.9707834720611572,,266.79158443480003,43.662571247522195
1557947889929,,38.2167337077645,57.373046875,,,,,,,
1557947889936,,,76.8408203125,,,,,,,
1557947889968,,,,4.932300389036088,7.259219646453857,-3.758896589279175,-1.0307037830352783,,293.10831013704836,42.63191393849884
1557947889989,,35.202035474661145,76.8408203125,,,,,,,
1557947889995,1.0,,,,,,,,,
1557947890019,,,,4.79050203627151,,,,,,
1557947890020,,,,,5.813121795654297,-3.2178070545196533,1.6891093254089355,,329.4793031088926,41.2470609563472
1557947890029,,34.533248709815574,76.8408203125,,,,,,,
1557947890036,,,67.6123046875,,,,,,,
1557947890069,,35.53303694832819,67.6123046875,,,,,,,
1557947890084,,,,4.827987323267112,5.884947776794434,-3.332728862762451,0.7170634269714355,999.8899536132813,317.3158836688805,41.02121440895788
1557947890109,,34.87734031266021,67.6123046875,,,,,,,
1557947890117,,,63.349609375,,,,,,,
1557947890128,1.0,,,,,,,,,
1557947890146,,,,3.942281332876174,8.614337921142578,-5.57370138168335,0.6260837316513062,,307.9420774104416,41.65969398404459
1557947890149,,36.269454318502056,63.349609375,,,,,,,
1557947890189,,43.84248603078085,63.349609375,,,,,,,
1557947890198,,,84.130859375,,,,,,,
1557947890220,,,,4.445612195040891,,,,,,
1557947890221,,,,,10.137049674987793,-8.394071578979492,1.9381062984466553,,308.8755969303477,42.46845869737752
1557947890249,,43.557872505515576,84.130859375,,,,,,,
1557947890265,1.0,,,,,,,,,
1557947890289,,50.16139288545081,84.130859375,4.147568663798449,,-10.467450141906738,,999.8999633789063,,
1557947890290,,,,,12.627019882202148,,3.312378168106079,,309.9745163111948,43.864110046650175
1557947890299,,,93.4765625,,,,,,,
1557947890329,,37.670863780461545,93.4765625,,,,,,,
1557947890353,,,,6.629925606196586,,,,,,
1557947890354,,,,,11.21444034576416,-11.113883972167969,3.1447839736938477,,304.2927039218092,45.91350788159906
1557947890369,,36.514203723645686,93.4765625,,,,,,,
1557947890380,,,46.9287109375,,,,,,,
1557947890401,,,,3.584401851111148,,-7.920019149780273,3.092111587524414,,,48.12993072377974
1557947890402,1.0,,,,7.350199222564697,,,,295.5760643143631,
1557947890409,,32.20035454281179,46.9287109375,,,,,,,
1557947890449,,36.13912536466544,46.9287109375,,,,,,,
1557947890481,,,,4.6043638759627274,4.558559894561768,-6.1530985832214355,2.1535844802856445,999.8599853515625,254.16774877302652,49.27240737295487
1557947890511,,34.31102220706529,,,,,,,,
1557947890522,1.0,,,,,,,,,
1557947890523,,,,5.846974182103222,3.5721490383148193,-5.2672438621521,0.7841010689735413,,232.68038345551656,49.21625747967004
1557947890549,,33.08693108918301,,,,,,,,
1557947890589,,35.785574378352834,,,,,,,,
1557947890598,,,,7.645241807166014,2.073378562927246,-4.247313976287842,-0.17836803197860718,,234.23889602033012,49.4829280258922
1557947890604,,,76.94816080729166,,,,,,,
1557947890629,,35.786185594811414,76.94816080729166,,,,,,,
1557947890658,3.0,,,7.891972492848721,3.643975019454956,-5.602431774139404,0.5063736438751221,999.8999633789063,227.51286723516006,49.707645801395024
1557947890669,,35.5267993754586,76.94816080729166,,,,,,,
1557947890683,,,41.97265625,,,,,,,
1557947890729,,35.241689885929055,41.97265625,8.475896431204195,5.305551052093506,-10.046070098876953,2.412158250808716,,191.71342790815697,50.209262387788144
1557947890769,,34.477989826509095,41.97265625,,,,,,,
1557947890782,,,,8.733779259088495,,-11.535264015197754,3.9157168865203857,,,50.951055039253475
1557947890783,3.0,,,,12.722787857055664,,,,211.32908916665167,
1557947890809,,33.923432306827515,,,,,,,,
1557947890841,2.0,,,8.065998589880433,12.780248641967773,-11.161767959594727,1.5310919284820557,999.9400024414063,217.7927567254232,51.32299839284514
1557947890849,,39.24138025829204,,,,,,,,
1557947890861,,,23.055826822916664,,,,,,,
1557947890889,,43.87485800301902,23.055826822916664,,,,,,,
1557947890898,2.0,,,,,,,,,
1557947890908,,,,4.804874670833464,10.740388870239258,-5.147533416748047,-0.6572083830833435,,267.3213407370154,51.53824079167588
1557947890929,,37.00635808264406,23.055826822916664,,,,,,,
1557947890970,,,,6.457352331985943,8.183381080627441,-4.10366153717041,-1.9069817066192627,,286.24517896466864,50.933487578769316
1557947890989,,34.50943420982401,,,,,,,,
1557947891015,2.0,,,,,,,,,
1557947891029,,34.2359791263072,,,,,,,,
1557947891030,,,,6.464712458542209,,-3.845088005065918,1.2485761642456055,999.8899536132813,,49.0323358582558
1557947891031,,,,,6.593631267547607,,,,298.51709595964644,
1557947891038,,,42.7392578125,,,,,,,
1557947891069,,29.586420117752674,42.7392578125,,,,,,,
1557947891091,,,,3.760974972914232,5.693411827087402,-4.405331134796143,1.7178397178649902,,281.764684152167,49.23789184058009
1557947891109,,29.704161338575954,42.7392578125,,,,,,,
1557947891122,2.0,,,,,,,,,
1557947891149,,30.20621501640627,,,,,,,,
1557947891155,,,,3.7474113430455986,,,,,,
1557947891156,,,,,7.536946773529053,-5.171475887298584,1.459265947341919,,288.25072741065947,49.677059498346196
1557947891189,,38.79928894182185,,,,,,,,
1557947891200,,,61.162109375,,,,,,,
1557947891222,,,,3.47364091161728,,,,999.9099731445313,,
1557947891223,1.0,,,,,-6.081272125244141,2.005143880844116,,,50.00200188253215
1557947891224,,,,,7.694964408874512,,,,296.0845377471247,
1557947891238,1.0,,,,,,,,,
1557947891249,,36.4548526163515,61.162109375,,,,,,,
1557947891281,,,,5.637641434682142,,,,,,
1557947891282,,,,,11.065999984741211,-10.414777755737305,2.187103271484375,,286.2288001710389,51.444145127522646
1557947891289,,36.71325606014189,61.162109375,,,,,,,
1557947891329,,36.93929469888389,61.162109375,,,,,,,
1557947891337,,,45.1220703125,,,,,,,
1557947891343,,,,5.200092153466226,,-10.15141487121582,3.906140089035034,,,52.702753123224824
1557947891344,,,,,10.022128105163574,,,,278.9879868583142,
1557947891368,1.0,,,,,,,,,
1557947891370,,36.005543182437506,45.1220703125,,,,,,,
1557947891407,,,,5.453986244724275,8.825027465820313,-10.769119262695313,3.843890905380249,999.8899536132813,264.95675656711364,54.15727279093492
1557947891411,,36.25033101381995,45.1220703125,,,,,,,
1557947891468,,39.28171813374008,,,,,,,,
1557947891492,1.0,,,4.847845892996816,4.491522312164307,-7.738059997558594,3.5039141178131104,,229.09191134861862,56.59549504606597
1557947891509,,40.82917795734454,,,,,,,,
1557947891519,,,45.8251953125,,,,,,,
1557947891534,,,,4.535587313304786,3.9264907836914063,-5.549759387969971,2.7281928062438965,,231.9957252931145,58.30317469372546
1557947891535,,,,,,,,,222.0867190716918,
1557947891549,,42.84679113089928,45.8251953125,,,,,,,
1557947891589,,42.260239140852974,45.8251953125,,,,,,,
1557947891594,,,0.0,,,,,,,
1557947891598,12.0,,,4.552947822846587,,-4.194641590118408,1.238999366760254,1000.0,,59.130617989546536
1557947891599,,,,,4.596867084503174,,,,215.464072029799,
1557947891620,12.0,,,,,,,,,
1557947891629,,37.72918649879452,,,,,,,,
1557947891669,,35.80917613884802,,,,,,,,
1557947891675,,,,4.545216680718601,,-4.807557106018066,,,,
1557947891676,,,,,4.079719543457031,,0.6979097723960876,,248.51752259345767,59.42979120270795
1557947891678,,,96.8798828125,,,,,,,
1557947891720,,,,3.893481818159032,4.5154643058776855,-5.463568210601807,1.765723705291748,,,58.348437205145785
1557947891721,,,,,,,,,233.38676161947933,
1557947891729,,34.75955163149352,96.8798828125,,,,,,,
1557947891737,12.0,,,,,,,,,
1557947891769,,36.30425279336449,96.8798828125,,,,,,,
1557947891790,15.0,,,3.692853242356116,5.851428985595703,-10.256759643554688,2.2206220626831055,999.9299926757813,231.87487192594028,58.01732796139897
1557947891791,,,,,,,,,224.90936304809122,
1557947891809,,36.13187289506949,,,,,,,,
1557947891849,,35.82632267392271,,,,,,,,
1557947891855,,,,5.422381726422083,,-10.290278434753418,3.8774096965789795,,,56.09376243348903
1557947891856,15.0,,,,9.93593692779541,,,,236.18719382069787,
1557947891860,,,1530.732421875,,,,,,,
1557947891889,,34.81140258009779,1530.732421875,,,,,,,
1557947891923,,,,7.460415455394548,,-10.524910926818848,2.4791958332061768,,,
1557947891924,,,,,13.182474136352539,,,,256.0366046431579,54.980998622280204
1557947891929,,39.19240350191534,1530.732421875,,,,,,,
1557947891980,1.0,,,8.773953158543776,11.453861236572266,-7.398083209991455,0.6931213736534119,999.9400024414063,272.51527612908154,53.55175066026599
1557947891981,1.0,,,,,,,,,
1557947891989,,42.4057719677074,1530.732421875,,,,,,,
1557947891995,,,0.0,,,,,,,
1557947892029,,32.7179067942608,,,,,,,,
1557947892043,,,,4.234693677108231,7.029376029968262,-4.759673118591309,2.3786394596099854,,,51.63274114136593
1557947892044,,,,,,,,,273.99758427332523,
1557947892069,,38.08929348018983,,,,,,,,
1557947892076,,,72.7490234375,,,,,,,
1557947892108,,,,4.232624888777256,5.2480902671813965,-4.754884719848633,0.11372458189725876,,278.7243825374867,50.845353770034876
1557947892109,,32.622480847727395,72.7490234375,,,,,,,
1557947892111,1.0,,,,,,,,,
1557947892149,,31.153587642389475,72.7490234375,,,,,,,
1557947892171,,,,3.977774025177088,4.122815132141113,-3.9600095748901367,2.072181463241577,999.9099731445313,,50.631018160807315
1557947892172,,,,,,,,,280.1277815062492,
1557947892209,,29.90479221049344,,,,,,,,
1557947892230,,,,2.7220792884238,4.496310710906982,-5.061342239379883,2.3930046558380127,,259.4877421364144,50.38551438738602
1557947892231,1.0,,,,,,,,,
1557947892249,,31.25564788871543,0.0,,,,,,,
1557947892289,,33.80190129661147,,,,,,,,
1557947892291,,,,1.848599279938875,5.3582234382629395,-5.626373767852783,1.7753005027770996,,263.2763182954263,50.252262882124725
1557947892329,,34.874296788647875,,,,,,,,
1557947892339,,,98.3154296875,,,,,,,
1557947892358,0.0,,,1.8900973001290378,7.307103633880615,-8.901641845703125,2.565387010574341,999.969970703125,251.7085938038768,49.178044593475285
1557947892362,0.0,,,,,,,,,
1557947892369,,38.02973728264837,98.3154296875,,,,,,,
1557947892409,,35.40103481702157,98.3154296875,,,,,,,
1557947892417,,,87.3974609375,,,,,,,
1557947892431,,,,5.847666035187204,10.141838073730469,-10.778696060180664,4.380191802978516,,247.48561078346296,48.18392006565125
1557947892469,,39.031064140962364,87.3974609375,,,,,,,
1557947892490,0.0,,,7.164490598577778,10.879252433776855,-11.88002872467041,4.279635429382324,,240.84184479665652,46.94560793969849
1557947892509,,37.01145653955663,87.3974609375,,,,,,,
1557947892546,6.0,,,7.336652986940384,6.689399719238281,-8.245630264282227,3.4177229404449463,999.9599609375,231.287024864834,45.793667781147406
1557947892549,,32.2311937189438,,,,,,,,
1557947892589,,32.29931424869278,,,,,,,,
1557947892600,,,19.89599609375,,,,,,,
1557947892613,,,,2.87923219406559,4.999093055725098,-4.98472785949707,1.5981296300888062,,237.4761461397277,44.136719692077286
1557947892616,6.0,,,,,,,,,
1557947892629,,35.13985636762683,19.89599609375,,,,,,,
1557947892669,,39.10873925808613,19.89599609375,,,,,,,
1557947892676,,,,5.115167816183525,,-4.256890773773193,1.157596468925476,,,
1557947892677,,,,,2.9065608978271484,,,,215.81532133805615,43.30877571773072
1557947892729,,38.95136340925105,19.89599609375,,,,,,,
1557947892747,,,,,,,,1000.0,,
1557947892748,10.0,,,4.057472992135521,5.104437828063965,-3.7876269817352295,-0.015562310814857483,,250.09997497131207,42.74540892905728
1557947892769,,32.00894367457897,,,,,,,,
1557947892809,,31.405645062921277,,2.740811777220507,4.999093055725098,-5.434837818145752,1.037886381149292,,229.49919552882648,41.94782455950808
1557947892819,,,42.59765625,,,,,,,
1557947892849,,36.096340888032664,42.59765625,,,,,,,
1557947892875,,,,2.025543648540696,,,,,,
1557947892876,10.0,,,,5.7556610107421875,-7.249642848968506,3.22139835357666,,207.43995213248968,40.936780914280995
1557947892889,,36.3059566132019,42.59765625,,,,,,,
1557947892922,0.0,,,2.2033706419878887,7.99184513092041,-9.591172218322754,4.662707805633545,999.949951171875,211.0738176766116,39.63281442309465
1557947892949,,34.484745087516025,,,,,,,,
1557947892989,,32.33177954295558,,,,,,,,
1557947892995,,,,7.146947152958229,12.157755851745605,-8.24084186553955,3.4129345417022705,,248.35894609149744,38.62149751307274
1557947892996,0.0,,,,,,,,,
1557947893001,,,193.798828125,,,,,,,
1557947893029,,36.70982971004937,193.798828125,,,,,,,
1557947893044,,,,10.172316393672991,14.997279167175293,-8.71489429473877,2.2254104614257813,,268.9040594922474,37.2759984630409
1557947893045,,,,,,,,,281.7702370959622,
1557947893069,,36.45499741917037,193.798828125,,,,,,,
1557947893077,,,98.6767578125,,,,,,,
1557947893109,,32.55064481515108,98.6767578125,,,,,,,
1557947893112,,,,,,,,1000.0299682617188,,
1557947893113,2.0,,,9.705267382500098,9.849745750427246,-6.157886981964111,0.4776432514190674,,289.93447149390516,36.65760579209243
1557947893149,,33.591131320811705,98.6767578125,,,,,,,
1557947893179,,,,1.7526315249555642,7.891288757324219,-7.560888767242432,1.4496891498565674,,268.0023037670765,36.10235533704927
1557947893209,,32.24245671508476,,,,,,,,
1557947893234,,,,3.007239349054618,4.525041103363037,-6.411672115325928,2.718616008758545,,227.89487971543883,36.25258611464843
1557947893235,2.0,,,,,,,,,
1557947893249,,36.37622716003932,,,,,,,,
1557947893256,,,68.3984375,,,,,,,
1557947893289,,32.24166571855835,68.3984375,,,,,,,
1557947893313,,,,4.846903900119353,,-6.18182897567749,2.3738510608673096,999.969970703125,,
1557947893314,,,,,4.194641590118408,,,,214.4045321046117,37.43073634522768
1557947893329,,30.965312878996475,68.3984375,,,,,,,
1557947893351,2.0,,,,,,,,,
1557947893365,,,,5.252957373945209,,-6.196194171905518,1.8854337930679321,,,
1557947893366,,,,,4.266467571258545,,,,206.05466682540612,37.52479227098767
1557947893369,,30.97253693450664,68.3984375,,,,,,,
1557947893429,,31.95644423655701,,,,,,,,
1557947893433,,,,5.111775525532933,4.395754337310791,-5.726930618286133,1.799242615699768,,198.6796607860581,37.863306355697794
1557947893469,,40.24746761094343,,,,,,,,
1557947893473,2.0,,,,,,,,,
1557947893485,,,626.416015625,,,,,,,
1557947893500,10.0,,,5.112066930508829,,,,1000.0299682617188,,
1557947893501,,,,,6.636727333068848,-8.882488250732422,0.9516952037811279,,193.2128593366499,37.932572176045085
1557947893509,,40.69963822327232,626.416015625,,,,,,,
1557947893549,,38.078331367658905,626.416015625,,,,,,,
1557947893560,,,,6.6266416998737645,,,,,,
1557947893561,,,,,7.580042362213135,-10.146626472473145,3.556586742401123,,188.86040325032934,38.27584330541082
1557947893589,,37.8879400900411,,,,,,,,
1557947893604,10.0,,,,,,,,,
1557947893629,,38.252711008563146,,,,,,,,
1557947893631,,,,6.8617917888810265,12.674903869628906,-10.280701637268066,3.2980127334594727,,210.08512047349558,38.07676712213463
1557947893640,,,72.236328125,,,,,,,
1557947893641,,,72.236328125,,,,,,,
1557947893678,0.0,,,4.74150429946558,,-7.833827972412109,2.589329242706299,1000.0299682617188,,37.76188652199401
1557947893679,,,,,11.27190113067627,,,,215.63846041968782,
1557947893689,,34.17935253677207,72.236328125,,,,,,,
1557947893729,,36.06464668562194,72.236328125,,,,,,,
1557947893735,0.0,,,,,,,,,
1557947893738,,,66.9873046875,,,,,,,
1557947893762,,,,4.719123471872021,9.610325813293457,-4.309563159942627,1.6412252187728882,,245.55047475762575,37.835962048147884
1557947893769,,37.42183561801887,66.9873046875,,,,,,,
1557947893802,,,,5.210799139608036,,,,,,
1557947893803,,,,,7.728483200073242,-2.9257144927978516,0.6404489278793335,,268.46436606442785,37.86409941022015
1557947893809,,38.58157230499698,66.9873046875,,,,,,,
1557947893816,,,70.3466796875,,,,,,,
1557947893849,,32.78989494021432,70.3466796875,,,,,,,
1557947893856,0.0,,,,,,,,,
1557947893884,1.0,,,3.127816266383376,7.422025203704834,-4.960785865783691,1.1001356840133667,1000.0499877929688,238.45289051179617,37.913982469783576
1557947893889,,40.563135441899696,70.3466796875,,,,,,,
1557947893947,,,,2.3374394210064566,,-7.613561630249023,2.2828712463378906,,,38.35974541920743
1557947893948,,,,,8.38449478149414,,,,212.77068255325287,
1557947893949,,42.341812486319405,,,,,,,,
1557947893987,1.0,,,,,,,,,
1557947893989,,38.21002053834778,,,,,,,,
1557947893995,,,0.0,,,,,,,
1557947894014,,,,5.139156792791358,,,,,,
1557947894015,,,,,8.743624687194824,-8.585607528686523,4.768052577972412,,162.19760871093834,38.759514532720026
1557947894029,,36.93338489017051,,,,,,,,
1557947894060,,,,5.505912896877586,,-10.333374977111816,4.940435409545898,1000.0199584960938,,39.185329738065356
1557947894061,,,,,8.518569946289063,,,,148.65402660572005,
1557947894069,,37.43079331791236,,,,,,,,
1557947894109,,41.25198624794862,,,,,,,,
1557947894111,1.0,,,,,,,,,
1557947894119,,,50.9130859375,,,,,,,
1557947894125,,,,5.144740720986981,,-4.7405195236206055,4.073734283447266,,,39.44172934510999
1557947894126,,,,,4.831499099731445,,,,119.83154355361503,
1557947894169,,35.70049225815894,50.9130859375,,,,,,,
1557947894178,,,,1.3708357609009434,7.354987621307373,-5.813121795654297,-0.4991910457611084,,223.31042942376962,39.95535005880355
1557947894209,,36.49577975680352,50.9130859375,,,,,,,
1557947894219,,,48.9306640625,,,,,,,
1557947894220,,,48.9306640625,,,,,,,
1557947894223,1.0,,,,,,,,,
1557947894244,3.0,,,3.6657059162181542,,-7.762001991271973,,1000.0099487304688,,
1557947894245,,,,,6.430825710296631,,1.114500880241394,,182.0825606501155,40.3403018291607
1557947894249,,41.925762077804485,48.9306640625,,,,,,,
1557947894289,,38.16512407670921,48.9306640625,,,,,,,
1557947894299,,,50.556640625,,,,,,,
1557947894313,,,,4.261467664893815,,-6.655880928039551,,,,
1557947894314,,,,,,,3.384204149246216,,,
1557947894315,,,,,5.683835029602051,,,,148.4871104427833,39.899247394959396
1557947894329,,37.39654450844861,50.556640625,,,,,,,
1557947894350,3.0,,,,,,,,,
1557947894369,,38.163227571011305,50.556640625,,,,,,,
1557947894377,,,,3.020343626822033,5.918466567993164,-6.229712963104248,0.9469067454338074,,187.82069819449168,40.17187996364639
1557947894429,,39.384611658990785,,,,,,,,
1557947894436,2.0,,,2.745684966351428,6.162675380706787,-6.2632317543029785,0.4297592043876648,1000.0199584960938,181.3761551653962,40.63126873024141
1557947894469,,31.86134608804594,,,,,,,,
1557947894477,,,48.7890625,,,,,,,
1557947894484,2.0,,,,,,,,,
1557947894509,,39.73666008616494,48.7890625,,,,,,,
1557947894510,,,,1.159328332254797,,-5.961562156677246,,,,
1557947894511,,,,,7.101202011108398,,1.1623848676681519,,181.23078141910162,40.49913582271318
1557947894549,,42.46841789730615,48.7890625,,,,,,,
1557947894559,,,,0.5910421160038596,7.522581577301025,-5.746084213256836,0.8846575021743774,,,40.69336556156515
1557947894560,,,,,,,,,183.79483443352444,
1557947894589,,40.92471521175651,,,,,,,,
1557947894619,2.0,,,,,,,999.989990234375,,
1557947894620,1.0,,,0.8781399247065279,,-6.8378400802612305,2.24935245513916,,,41.087469210959895
1557947894621,,,,,8.236053466796875,,,,173.86044358668025,
1557947894629,,40.64054863018298,,,,,,,,
1557947894637,,,1215.6884765625,,,,,,,
1557947894689,,35.8900227114863,1215.6884765625,,,,,,,
1557947894692,,,,3.7005724902197352,9.165003776550293,-9.44752025604248,2.412158250808716,,162.81770792530546,41.20461290701801
1557947894729,,33.73803981690704,1215.6884765625,,,,,,,
1557947894737,1.0,,,,,,,,,
1557947894754,,,,2.87455696341208,7.647080421447754,-6.090848922729492,3.5709519386291504,,135.7271012995272,41.03876369005167
1557947894769,,35.483349615417076,1215.6884765625,,,,,,,
1557947894809,,37.565012417861475,,,,,,,,
1557947894814,,,,3.02367153789756,7.65186882019043,-5.382165431976318,2.934094190597534,1000.0399780273438,124.44679799844101,41.36097351974196
1557947894849,,37.25958952100947,,,,,,,,
1557947894855,1.0,,,,,,,,,
1557947894858,,,526.0791015625,,,,,,,
1557947894859,,,526.0791015625,,,,,,,
1557947894873,,,,1.5382356697951318,7.872135162353516,-7.168240070343018,0.568622887134552,,,41.7326011522393
1557947894874,,,,,,,,,162.73694776855922,
1557947894909,,38.1617267631852,526.0791015625,,,,,,,
1557947894948,,,,2.051197758113392,,,,,,
1557947894949,,34.2497924667946,526.0791015625,,,,,,,
1557947894972,,,529.5947265625,,,,,,,
1557947894979,1.0,,,,,,,,,
1557947894989,,34.06674368759707,529.5947265625,,,,,,,
1557947895006,2.0,,,2.551076033705882,,-6.98628044128418,3.159149169921875,1000.0,,43.21446609460326
1557947895007,,,,,7.508216381072998,,,,120.39765695278237,
1557947895029,,34.61437479531904,529.5947265625,,,,,,,
1557947895067,,,,4.279721843558006,,-7.091625213623047,3.6619315147399902,,,
1557947895068,,,,,7.283161640167236,,,,107.9237917546148,43.914235581072376
1557947895069,,31.81452928219267,,,,,,,,
1557947895109,,32.801363063994756,,,,,,,,
1557947895111,2.0,,,,,,,,,
1557947895121,,,527.7978515625,,,,,,,
1557947895138,,,,4.630699357671333,6.67982292175293,-6.823474884033203,3.6954503059387207,,100.23410523982596,45.11640494704859
1557947895139,,,,,,,,,95.56881965932962,
1557947895169,,31.99950769066748,527.7978515625,,,,,,,
1557947895206,,,,4.889899154278509,6.660669326782227,-7.105990409851074,3.604470729827881,1000.0,95.5343681851561,44.91547742742552
1557947895209,,35.41961137616305,527.7978515625,,,,,,,
1557947895221,,,523.2666015625,,,,,,,
1557947895238,2.0,,,,,,,,,
1557947895249,,37.1036619654565,523.2666015625,,,,,,,
1557947895251,,,,5.233041713065042,7.067683219909668,-7.450755596160889,3.4129345417022705,,98.85416797086248,44.05700832996325
1557947895289,,35.004292411504935,523.2666015625,,,,,,,
1557947895321,,,,4.807816245022103,,-7.647080421447754,2.6563668251037598,,,
1557947895322,,,,,6.995857238769531,,,,104.35406168679935,42.508705452119905
1557947895329,,34.481008061200725,,,,,,,,
1557947895369,,32.663140307422566,,,,,,,,
1557947895371,2.0,,,,,,,,,
1557947895377,,,522.0166015625,,,,,,,
1557947895389,,,,3.454509750893541,7.445967197418213,-7.216124057769775,1.191115379333496,1000.0599975585938,,40.171756662367336
1557947895390,,,,,,,,,112.30686074879537,
1557947895429,,31.139358704063625,522.0166015625,,,,,,,
1557947895461,,,,4.352189681435468,5.999869346618652,-7.474697589874268,0.34835633635520935,,124.71510148941746,38.37160462533434
1557947895469,,34.134224510108616,522.0166015625,,,,,,,
1557947895505,,,,2.003568565069357,,,,,,
1557947895506,,,,,6.866570472717285,-4.63517427444458,0.8271966576576233,,110.77094244975626,36.105401965868545
1557947895509,,40.72999448012826,522.0166015625,,,,,,,
1557947895513,2.0,,,,,,,,,
1557947895520,,,477.71484375,,,,,,,
1557947895549,,37.05144011961169,477.71484375,,,,,,,
1557947895570,1.0,,,1.804849328385904,,-7.015010833740234,-1.6723499298095703,1000.0299682617188,,
1557947895571,,,,,8.212111473083496,,,,122.97416823225126,35.88161190337504
1557947895589,,37.557441587671406,477.71484375,,,,,,,
1557947895642,1.0,,,3.790250548684316,6.885724067687988,-6.981492042541504,0.48243165016174316,,160.60861984204823,35.09031268167756
1557947895649,,32.87462654820503,,,,,,,,
1557947895689,,31.93341314523192,,,,,,,,
1557947895704,,,592.9443359375,,,,,,,
1557947895708,,,,1.3640004968698218,7.043741226196289,-5.9519853591918945,0.9900023937225342,,,35.10042810206164
1557947895709,,,,,,,,,132.0501645824992,
1557947895729,,33.08165638191213,592.9443359375,,,,,,,
1557947895759,0.0,,,2.287564461221936,7.522581577301025,-5.238513469696045,-0.5805938839912415,999.9299926757813,144.2232555703761,35.00485755808608
1557947895769,,32.80087173580367,592.9443359375,,,,,,,
1557947895783,0.0,,,,,,,,,
1557947895809,,31.45417849160692,,,,,,,,
1557947895831,,,,2.002031248475669,7.354987621307373,-4.3861775398254395,1.2294225692749023,,,34.724487993270785
1557947895832,,,,,,,,,119.37158495452803,
1557947895849,,37.165964829010306,0.0,,,,,,,
1557947895893,,,,2.5195757248376003,,-4.577713489532471,,,,
1557947895894,,,,,7.546523571014404,,1.0666168928146362,,118.21763815463271,33.99220522670332
1557947895909,,36.941080164953426,,,,,,,,
1557947895921,0.0,,,,,,,,,
1557947895943,,,,,,,,999.989990234375,,
1557947895944,1.0,,,2.6001283283842285,7.6566572189331055,-4.491522312164307,0.970848798751831,,104.28645647439456,33.80591644331308
1557947895949,,33.039277050279274,,,,,,,,
1557947895968,,,216.7126028878348,,,,,,,
1557947895989,,33.82630807988545,216.7126028878348,,,,,,,
1557947896020,,,,1.7651297625857054,7.129932880401611,-5.1810526847839355,1.4449007511138916,,108.26510996781866,33.67090835805256
1557947896029,,32.11983148126572,216.7126028878348,,,,,,,
1557947896038,,,292.1044921875,,,,,,,
1557947896043,1.0,,,,,,,,,
1557947896069,,45.1896311593739,292.1044921875,1.4575960838878714,,,,,,
1557947896070,,,,,7.139509677886963,-5.74129581451416,2.321178436279297,,100.04512073568088,33.410179344730366
1557947896109,,43.33416078403407,292.1044921875,,,,,,,
1557947896133,2.0,,,1.3497377105509518,9.375694274902344,-8.178592681884766,2.182314872741699,1000.0,100.47528604960831,33.239886920865175
1557947896169,,40.46377620492886,292.1044921875,,,,,,,
1557947896178,2.0,,,,,,,,,
1557947896204,,,,3.5296232814612387,9.959878921508789,-8.197746276855469,2.699462413787842,,103.98122215057583,34.09706787189079
1557947896209,,36.250411465889,,,,,,,,
1557947896249,,37.3607472960292,,,,,,,,
1557947896258,,,51.2646484375,,,,,,,
1557947896267,,,,4.9423256000010545,9.342175483703613,-9.581595420837402,3.111265182495117,,108.58560293424318,34.614592237460876
1557947896289,,37.17911450868471,51.2646484375,,,,,,,
1557947896319,2.0,,,,,,,,,
1557947896329,,35.22177268490382,51.2646484375,,,,,,,
1557947896335,0.0,,,5.3003910064415996,6.962338447570801,-8.528146743774414,3.5278561115264893,1000.0700073242188,112.05128190024266,35.44728448256806
1557947896337,,,74.08203125,,,,,,,
1557947896389,,34.378830400740114,74.08203125,,,,,,,
1557947896398,,,,4.452115128432921,,,,,,
1557947896399,,,,,4.692635536193848,-5.018246650695801,3.116053581237793,,98.28136098630853,35.32180615462022
1557947896427,0.0,,,,,,,,,
1557947896429,,32.91716676814146,74.08203125,,,,,,,
1557947896437,,,77.1142578125,,,,,,,
1557947896461,,,,3.5097994540053747,5.018246650695801,-4.802768707275391,0.9900023937225342,,120.67108308563633,35.642811011572036
1557947896469,,40.25124956913187,77.1142578125,,,,,,,
1557947896509,,37.1982703584151,77.1142578125,,,,,,,
1557947896515,,,0.0,,,,,,,
1557947896516,,,,,,,,1000.1099853515625,,
1557947896517,1.0,,,3.5300621803145633,5.07570743560791,-4.022258758544922,0.5015852451324463,,125.64542789588654,35.60070191452186
1557947896549,,35.471533460964395,,,,,,,,
1557947896556,1.0,,,,,,,,,
1557947896588,,,,2.8692212284989194,5.669469833374023,-5.171475887298584,0.9469067454338074,,126.60370343643933,35.68809424017493
1557947896589,,32.746877607107464,,,,,,,,
1557947896599,,,254.8046875,,,,,,,
1557947896649,,35.94104041497691,254.8046875,,,,,,,
1557947896659,,,,3.16699369314642,,-6.766014099121094,3.0777463912963867,,,36.23810116853797
1557947896660,,,,,6.766014099121094,,,,114.23377322687188,
1557947896670,1.0,,,,,,,,,
1557947896689,,37.44766959614586,254.8046875,,,,,,,
1557947896716,,,,2.995799302574141,9.366117477416992,-9.279925346374512,3.642777919769287,1000.1099853515625,114.74858507518326,36.6476462515217
1557947896729,,34.47331278341592,,,,,,,,
1557947896769,,36.55939936514296,,,,,,,,
1557947896775,,,,3.806590268314308,10.845733642578125,-7.134721279144287,3.049015760421753,,,37.41777822679969
1557947896776,,,,,,,,,116.26317952363357,
1557947896785,,,535.205078125,,,,,,,
1557947896790,1.0,,,,,,,,,
1557947896809,,34.33780997735602,535.205078125,,,,,,,
1557947896838,,,,5.469161535854782,,-8.753201484680176,,,,
1557947896839,,,,,12.368446350097656,,0.6500257849693298,,130.58503436401813,38.165300270834976
1557947896849,,41.057677223722926,535.205078125,,,,,,,
1557947896902,,,,5.691873063924571,,,,1000.0799560546875,,
1557947896903,,,,,8.638279914855957,-4.520252704620361,-0.19273324310779572,,126.17506808488605,38.32218867614283
1557947896909,,35.962976705349114,535.205078125,,,,,,,
1557947896929,1.0,,,,,,,,,
1557947896949,,35.3576030634282,,,,,,,,
1557947896973,,,,3.076000429250144,,,,,,
1557947896974,,,,,7.220912456512451,-4.529829502105713,-0.6236895322799683,,132.66941685340925,38.893958300670725
1557947896989,,32.96169677633451,,,,,,,,
1557947897002,,,58.53515625,,,,,,,
1557947897020,,,,3.3076011853299803,5.669469833374023,-3.667917013168335,0.5877765417098999,,118.20634102174552,38.245914167454586
1557947897029,,35.12189834098286,58.53515625,,,,,,,
1557947897066,1.0,,,,,,,,,
1557947897071,,32.32210596231779,58.53515625,,,,,,,
1557947897089,0.0,,,3.2566690244897165,5.013458251953125,-4.271255970001221,2.4361002445220947,1000.0700073242188,122.11786741600676,38.753193580204396
1557947897090,,,75.166015625,,,,,,,
1557947897129,,33.028712729728696,75.166015625,,,,,,,
1557947897159,,,,2.078946058945113,,-4.778826713562012,,,,
1557947897160,,,,,6.54574728012085,,0.6356605291366577,,125.92747372747306,39.50708813193899
1557947897169,,30.958985585649298,75.166015625,,,,,,,
1557947897209,,35.98930417479742,,,,,,,,
1557947897211,,,,1.1838597165654678,,,,,,
1557947897212,0.0,,,,7.038952827453613,-5.4013190269470215,1.1288660764694214,,125.3172919477808,39.446926530019994
1557947897249,,34.02564870449453,,,,,,,,
1557947897260,,,75.595703125,,,,,,,
1557947897289,,35.85190974256292,75.595703125,,,,,,,
1557947897292,,,,1.0578756113538539,,,,1000.1300048828125,,
1557947897293,,,,,9.68694019317627,-8.580819129943848,2.139219284057617,,124.36665255872009,39.77562099166234
1557947897329,,35.47206731971972,75.595703125,,,,,,,
1557947897337,0.0,,,3.689058911823885,9.749189376831055,-8.078036308288574,3.6523547172546387,,113.89065184372711,39.9943749299237
1557947897389,,35.89693326406519,,,,,,,,
1557947897408,,,,4.598914532508659,9.749189376831055,-9.619902610778809,2.9484593868255615,,120.61406466644505,40.284612778365904
1557947897429,,35.93318206300291,,,,,,,,
1557947897438,,,180.2197265625,,,,,,,
1557947897454,0.0,,,,,,,,,
1557947897469,,35.17860636143985,180.2197265625,,,,,,,
1557947897480,1.0,,,4.693929509820537,6.421248912811279,-6.607996463775635,3.4081461429595947,1000.1099853515625,,40.51296122805417
1557947897481,,,,,,,,,118.88429193838266,
1557947897509,,35.85850197814792,180.2197265625,,,,,,,
1557947897525,,,,1.918834855877931,6.358999729156494,-5.1331682205200195,2.627636432647705,,109.39936533233686,41.169163048043075
1557947897549,,35.10630313662467,180.2197265625,,,,,,,
1557947897589,,33.75494339464284,,3.102470361166879,,,,,,
1557947897590,,,,,5.137956619262695,-4.2951979637146,0.9804255962371826,,121.53521129866965,41.37027898977924
1557947897594,1.0,,,,,,,,,
1557947897649,,33.089771483756294,,,,,,,,
1557947897661,,,66.6015625,,,,,,,
1557947897665,,,,,,,,1000.1599731445313,,
1557947897666,,,,2.904428711228912,5.731719017028809,-4.256890773773193,0.39145198464393616,,126.44501082126328,41.37027898977924
1557947897689,,31.093589750066833,66.6015625,,,,,,,
1557947897713,,,,1.9710089424507193,,,,,,
1557947897714,,,,,5.904101371765137,-5.975927352905273,2.2637176513671875,,114.76639820853865,41.934593725796084
1557947897715,1.0,,,,,,,,,
1557947897729,,30.769702256993906,66.6015625,,,,,,,
1557947897772,,37.04524694986675,,,,,,,,
1557947897782,,,,3.0229826198107284,6.2632317543029785,-5.779603004455566,4.126406669616699,,,41.58497545120275
1557947897783,,,,,,,,,102.06551118273819,
1557947897809,,37.22973553502178,,,,,,,,
1557947897819,,,68.212890625,,,,,,,
1557947897850,2.0,,,3.049332630123474,8.614337921142578,-8.767566680908203,2.603694438934326,1000.0299682617188,102.11194280871592,42.10582161654755
1557947897851,2.0,,,,,,,,118.79675623397975,
1557947897869,,35.49340059776285,68.212890625,,,,,,,
1557947897909,,33.68124982386692,68.212890625,,,,,,,
1557947897917,,,66.5625,,,,,,,
1557947897918,,,,4.156911696915997,10.975020408630371,-7.393294811248779,2.9053637981414795,,113.09067959756771,42.33639275606833
1557947897949,,33.85688645462186,66.5625,,,,,,,
1557947897963,,,,5.230133615687027,,-8.188169479370117,2.0434510707855225,,,42.33639275606833
1557947897964,,,,,12.038045883178711,,,,119.01641511768736,
1557947897989,,37.64791833908517,66.5625,,,,,,,
1557947897991,2.0,,,,,,,,,
1557947898000,,,99.658203125,,,,,,,
1557947898029,,32.56222364438313,99.658203125,,,,,,,
1557947898035,1.0,,,5.220928902244784,9.50498104095459,-5.525817394256592,-0.7242460250854492,1000.1900024414063,117.91585307634489,42.41945489309274
1557947898069,,31.70036684738205,99.658203125,,,,,,,
1557947898085,,,,3.7127404902493537,,,,,,
1557947898086,,,,,7.781155586242676,-4.323928356170654,-0.8918401598930359,,131.18686965254463,42.6179565221562
1557947898129,,30.79353685529005,,,,,,,,
1557947898130,1.0,,,,,,,,,
1557947898169,,31.952791179219936,,,,,,,,
1557947898172,,,,3.3640874412593624,,,,,,
1557947898173,,,,,5.07570743560791,-4.1180267333984375,0.7984662652015686,,122.14414998393295,42.32871545390368
1557947898209,,31.71336949389552,,,,,,,,
1557947898218,0.0,,,2.1854505475099573,5.7987565994262695,-4.750096321105957,2.1057004928588867,1000.2099609375,110.73129320162434,42.32871545390368
1557947898249,,30.696118335121824,,,,,,,,
1557947898261,0.0,,,,,,,,,
1557947898278,,,,2.1262497312443567,5.95677375793457,-5.257667064666748,1.7944542169570923,,115.32538089021247,42.57933839073435
1557947898289,,30.178216960365024,0.0,,,,,,,
1557947898329,,31.707282212792407,,,,,,,,
1557947898348,,,,1.6083530032811366,,-5.947196960449219,,,,
1557947898349,,,,,6.799532890319824,,1.7322049140930176,,119.24917430422306,42.518820041215825
1557947898389,,32.51603877994296,0.0,,,,,,,
1557947898391,0.0,,,,,,,,,
1557947898407,2.0,,,1.5414343822172245,,,,1000.0999755859375,,
1557947898408,,,,,8.293514251708984,-7.5417351722717285,1.9524714946746826,,119.27992381586645,43.60527624721834
1557947898429,,38.093897370075254,,,,,,,,
1557947898469,,35.21245376832666,,,,,,,,
1557947898476,,,1898.984375,,,,,,,
1557947898477,,,,3.0479776587981604,,-7.99184513092041,,,,
1557947898478,,,,,9.265560150146484,,2.5989060401916504,,117.59930112907148,43.89738184761953
1557947898509,,38.07536472614231,1898.984375,,,,,,,
1557947898525,2.0,,,,,,,,,
1557947898540,,,,3.076831836448049,9.165003776550293,-8.202534675598145,2.5318682193756104,,117.94079692719376,43.89738184761953
1557947898549,,34.388276975102,1898.984375,,,,,,,
1557947898609,,31.122924746619436,,,,,,,,
1557947898611,,,,3.05850753565233,,-7.268796443939209,,1000.1099853515625,,
1557947898612,,,,,6.9240312576293945,,2.981978178024292,,117.94079692719376,43.89738184761953
1557947898649,,31.740176876505274,,,,,,,,
1557947898654,,,,2.4222089967842955,,,,,,
1557947898655,2.0,,,,6.593631267547607,-5.295974254608154,3.3698389530181885,,105.22428925876147,44.960650970474
1557947898658,,,99.31640625,,,,,,,
1557947898689,,29.642191047642832,99.31640625,,,,,,,
1557947898729,,29.273128746785133,99.31640625,,,,,,,
1557947898741,,,,3.243224196549926,5.674258232116699,-3.5386300086975098,1.8997989892959595,,106.07744818798778,45.820739366967466
1557947898769,,31.761750939260267,,,,,,,,
1557947898783,2.0,,,2.8307568859625363,6.3302693367004395,-3.8738183975219727,0.6117185354232788,1000.0999755859375,115.71777525802969,46.53804813075529
1557947898809,,31.143005935045203,0.0,,,,,,,
1557947898866,,,,1.472413141638929,,,,,,
1557947898867,,,,,6.493074893951416,-5.319916248321533,1.8375498056411743,,112.00637340644982,46.386850772427266
1557947898869,,34.461625216728144,,,,,,,,
1557947898909,,36.82563500162453,,,,,,,,
1557947898910,,,,2.8560641772969437,7.953537940979004,-7.522581577301025,3.599682331085205,,106.00551263564921,46.44286733195903
1557947898912,2.0,,,,,,,,,
1557947898949,,34.88568047982558,,,,,,,,
1557947898961,,,10.350254603794642,,,,,,,
1557947898971,,,,4.503969349216493,,-8.734047889709473,3.9588124752044678,1000.1399536132813,,46.95891759356085
1557947898972,,,,,9.830592155456543,,,,106.74055710355847,
1557947898989,,32.9113762127336,10.350254603794642,,,,,,,
1557947899029,,33.72802437907456,10.350254603794642,,,,,,,
1557947899044,2.0,,,4.432218820740551,10.807426452636719,-8.197746276855469,3.3267433643341064,,108.22774200286955,46.62735206398504
1557947899069,,33.829090800340865,,,,,,,,
1557947899104,,,,4.5361676070046055,,,,,,
1557947899105,,,,,11.018115997314453,-8.293514251708984,-0.25498247146606445,,110.21573003250427,46.56554478873364
1557947899129,,35.10540891203278,,,,,,,,
1557947899141,,,41.591796875,,,,,,,
1557947899169,,33.37230510069451,41.591796875,,,,,,,
1557947899176,1.0,,,5.121023356567109,8.255207061767578,-3.6152446269989014,-1.6340426206588745,1000.1799926757813,128.1362203012718,46.56554478873364
1557947899177,1.0,,,,,,,,,
1557947899209,,34.474333365283606,41.591796875,,,,,,,
1557947899218,,,46.982421875,,,,,,,
1557947899221,,,,3.1438694227829767,7.292738437652588,-5.118803024291992,-0.6236895322799683,,130.549435418064,46.024557808777814
1557947899249,,32.38331433526787,46.982421875,,,,,,,
1557947899287,,,,2.54379207566913,5.525817394256592,-4.922478675842285,1.9812018871307373,,,45.76669090084669
1557947899288,,,,,,,,,110.33142660685513,
1557947899289,,31.20764099032346,46.982421875,,,,,,,
1557947899299,,,52.34375,,,,,,,
1557947899314,1.0,,,,,,,,,
1557947899349,,36.536751628487714,52.34375,,,,,,,
1557947899358,,,,,,,,1000.1099853515625,,
1557947899359,2.0,,,3.566945564797905,4.970362663269043,-4.884171485900879,3.3698389530181885,,99.10265025286753,45.66694646239132
1557947899389,,30.556293432835233,52.34375,,,,,,,
1557947899397,,,43.06640625,,,,,,,
1557947899422,,,,3.5936210277468676,,,,,,
1557947899423,,,,,5.966350555419922,-5.2480902671813965,0.34356793761253357,,100.23559422106507,46.30539903717399
1557947899429,,29.385025256736878,43.06640625,,,,,,,
1557947899449,2.0,,,,,,,,,
1557947899469,,30.086026111133698,43.06640625,,,,,,,
1557947899493,,,,2.1539456867181648,,,,,,
1557947899494,,,,,6.268020153045654,-5.492298603057861,1.6364368200302124,,115.72075322050785,46.20844057644553
1557947899509,,31.849870100040597,,,,,,,,
1557947899538,,,,2.4519093410976005,,,,1000.1300048828125,,
1557947899539,5.0,,,,8.26478385925293,-7.694964408874512,2.0434510707855225,,118.73278468221343,46.20844057644553
1557947899549,,31.609352081376333,0.0,,,,,,,
1557947899588,5.0,,,,,,,,,
1557947899609,,34.51287400841305,,2.7396145566217447,9.509769439697266,-7.5417351722717285,2.828749418258667,,113.62611178698336,46.20844057644553
1557947899649,,31.50978262154668,,,,,,,,
1557947899676,,,,3.39508705285985,10.41956615447998,-7.8529815673828125,1.4449007511138916,,120.83858664484171,46.25613452044958
1557947899677,,,,,,,,,120.06103790972747,
1557947899689,,33.872294207263046,,,,,,,,
1557947899697,,,40.1513671875,,,,,,,
1557947899725,1.0,,,2.879341827526077,,-8.432378768920898,2.278082847595215,1000.1699829101563,,46.58529772536524
1557947899726,1.0,,,,8.99740982055664,,,,117.85556982673035,
1557947899732,,30.32174326746319,40.1513671875,,,,,,,
1557947899769,,29.901387486614766,40.1513671875,,,,,,,
1557947899778,,,52.4365234375,,,,,,,
1557947899788,,,,3.21452617351339,6.469132900238037,-4.879383087158203,3.9396588802337646,,98.6371865213095,46.76045300271616
1557947899829,,29.000497706271386,52.4365234375,,,,,,,
1557947899851,1.0,,,,,,,,,
1557947899869,,28.78797869142844,52.4365234375,,,,,,,
1557947899873,,,,3.256867415749301,,-3.950432777404785,2.139219284057617,,,46.55717047668497
1557947899874,,,,,5.281609058380127,,,,103.90322822044345,
1557947899909,,31.402213583353472,,,,,,,,
1557947899923,3.0,,,3.223843146727922,6.823474884033203,-4.3622355461120605,0.27653029561042786,1000.1399536132813,102.8773747882426,46.43533146760962
1557947899949,,30.051650898406667,0.0,,,,,,,
1557947899970,3.0,,,,,,,,,
1557947899986,,,,0.4445378609753997,,,,,,
1557947899987,,,,,7.158663272857666,-6.167463779449463,1.602918028831482,,113.19082383117842,46.48354558001501
1557947899989,,30.789534833241664,,,,,,,,
1557947900029,,30.550901158424683,0.0,,,,,,,
1557947900046,,,,4.094530802804784,5.928043365478516,-5.702988624572754,4.677073001861572,,93.08642838662354,46.56221653548627
1557947900089,,35.78071561085392,,,,,,,,
1557947900091,3.0,,,,,,,,,
1557947900116,4.0,,,3.2386583354879965,,-5.372588634490967,3.8103721141815186,1000.1699829101563,,46.27720950976169
1557947900117,,,,,6.507440090179443,,,,96.78087087849428,
1557947900129,,34.48752200461678,,,,,,,,
1557947900140,,,279.84049479166663,,,,,,,
1557947900169,,30.424856813654905,279.84049479166663,,,,,,,
1557947900179,,,,2.7206623761698547,,,,,,
1557947900180,,,,,9.404424667358398,-8.111555099487305,1.3634978532791138,,116.34235507649237,46.32159431278289
1557947900209,,32.99831545631954,279.84049479166663,,,,,,,
1557947900228,,,,3.496817095211484,,-6.742072105407715,,,,
1557947900229,4.0,,,,10.630255699157715,,2.2206220626831055,,109.69557697626198,46.75831464235546
1557947900249,,33.063690616157075,,,,,,,,
1557947900289,,33.512257154560615,,,,,,,,
1557947900296,1.0,,,3.359000393584973,,-8.513781547546387,1.3395558595657349,1000.1900024414063,,46.05844052432675
1557947900297,,,,,11.870451927185059,,,,111.01255356145629,
1557947900346,1.0,,,,,,,,,
1557947900349,,38.678832176111,,,,,,,,
1557947900359,,,834.3408203125,,,,,,,
1557947900363,,,,2.1302884435785305,9.05487060546875,-6.205770969390869,0.39624038338661194,,120.84614083406376,45.96618548368007
1557947900389,,34.16280265863697,834.3408203125,,,,,,,
1557947900416,,,,4.188970506875251,,-5.104437828063965,-1.8782511949539185,,,
1557947900429,,39.334592893779934,834.3408203125,,,,,,,
1557947900430,,,,,6.813898086547852,,,,140.9444642404465,45.96618548368007
1557947900440,,,836.513671875,,,,,,,
1557947900465,1.0,,,,,,,,,
1557947900469,,35.707989147868425,836.513671875,,,,,,,
1557947900497,0.0,,,4.267909294215652,5.161899089813232,-4.410119533538818,1.3730746507644653,1000.1599731445313,141.4840765056342,45.721879100923296
1557947900509,,35.53937866001782,836.513671875,,,,,,,
1557947900517,,,834.951171875,,,,,,,
1557947900556,,,,3.282726718484491,5.2480902671813965,-4.888959884643555,3.0825347900390625,,100.3456012478373,46.28488064122007
1557947900568,,30.485975628989905,,,,,,,,
1557947900569,,,834.951171875,,,,,,,
1557947900581,0.0,,,,,,,,,
1557947900606,,,,3.4621774075613487,,,,,,
1557947900607,,,,,4.927267074584961,-4.367023944854736,1.8327614068984985,,109.46095314808287,46.45266575385799
1557947900609,,30.280878837114752,834.951171875,,,,,,,
1557947900619,,,836.123046875,,,,,,,
1557947900620,,,836.123046875,,,,,,,
1557947900649,,29.970925045049373,836.123046875,,,,,,,
1557947900683,8.0,,,2.9924685991085003,5.4444146156311035,-5.238513469696045,1.3778630495071411,1000.1900024414063,117.50695697149288,46.44577651055327
1557947900689,,31.88476004449146,836.123046875,,,,,,,
1557947900711,8.0,,,,,,,,,
1557947900729,,33.62080360478928,,,,,,,,
1557947900733,,,,1.4970223754454135,,,,,,
1557947900734,,,,,8.24084186553955,-6.402095317840576,1.4496891498565674,,119.82999993086261,46.44577651055327
1557947900769,,35.789159272294896,,,,,,,,
1557947900779,,,835.469970703125,,,,,,,
1557947900803,,,,3.3051696858439326,9.404424667358398,-8.422801971435547,2.6611552238464355,,116.60205252911459,45.88943340542974
1557947900829,,33.16080369397277,835.469970703125,,,,,,,
1557947900853,8.0,,,,,,,,,
1557947900869,,32.042921395056524,835.469970703125,,,,,,,
1557947900880,2.0,,418.53461371527777,4.189615882255165,10.94150161743164,-7.943961143493652,3.1495723724365234,1000.1900024414063,112.15770307770066,46.18701199760268
1557947900909,,34.95775890858364,418.53461371527777,,,,,,,
1557947900938,,,,3.1389094739330847,,-8.719682693481445,,,,
1557947900939,,,,,8.030152320861816,,3.044227361679077,,111.19954365036375,46.24543304329695
1557947900949,,32.123402245451686,418.53461371527777,,,,,,,
1557947900958,,,418.08349609375,,,,,,,
1557947900983,2.0,,,,,,,,,
1557947900989,,32.199305022547435,418.08349609375,,,,,,,
1557947901007,,,,2.1870940785487147,8.283937454223633,-5.793968200683594,3.1256303787231445,,104.65538231222362,45.98412855522335
1557947901029,,30.522635775145645,418.08349609375,,,,,,,
1557947901052,1.0,,,2.392441601653377,6.555324077606201,-4.649539470672607,1.746570110321045,1000.25,102.21812492955291,45.442821484910354
1557947901089,,29.71343267027281,418.08349609375,,,,,,,
1557947901113,1.0,,,2.8963987681213044,7.364564418792725,-4.089296340942383,0.8080430626869202,,109.13750270974771,45.27615466591261
1557947901129,,31.208348339198707,,,,,,,,
1557947901169,,30.6130558454956,0.0,,,,,,,
1557947901183,,,,2.813582741754016,6.540958881378174,-4.180276393890381,1.2677297592163086,,,44.9992235913585
1557947901184,,,,,,,,,106.34177650886727,
1557947901209,,29.33780346161266,,,,,,,,
1557947901245,2.0,,,2.7610346744105043,6.27280855178833,-6.507440090179443,3.0154969692230225,1000.2099609375,101.29119995729053,44.37893608968622
1557947901248,2.0,,,,,,,,,
1557947901249,,34.25764260375922,0.0,,,,,,,
1557947901309,,30.751514151946804,,,,,,,,
1557947901315,,,,4.3215851107982415,6.335057735443115,-5.17626428604126,4.428076267242432,,88.11930991651514,44.119157050908754
1557947901349,,40.010172283254526,,,,,,,,
1557947901358,,,56.5087890625,,,,,,,
1557947901383,,,,2.811756968364355,,-6.191405773162842,2.84790301322937,,,
1557947901389,,39.66578985988315,56.5087890625,,,,,,,
1557947901429,,39.00985125908659,56.5087890625,,,,,,,
1557947901432,,,,,,,,1000.2799682617188,,
1557947901433,,,,4.442349644887448,10.845733642578125,-7.249642848968506,2.0913352966308594,,103.59864276459592,44.44918501485492
1557947901443,,,71.38671875,,,,,,,
1557947901469,,35.578815468313906,71.38671875,,,,,,,
1557947901497,,,,6.362582810618079,12.406753540039063,-7.714118003845215,3.551798105239868,,99.17553520150074,44.24149609162388
1557947901509,,40.533970014084204,71.38671875,,,,,,,
1557947901519,2.0,,,,,,,,,
1557947901561,,,,4.841494127220556,10.237606048583984,-9.854534149169922,2.7664999961853027,,102.43065309576707,43.8376542953678
1557947901569,,39.453822531373206,,,,,,,,
1557947901609,,44.7414657826791,,,,,,,,
1557947901618,,,738.3642578125,,,,,,,
1557947901623,,,,5.0104128176012805,8.101978302001953,-7.95832633972168,2.1344308853149414,1000.25,91.42128973867693,43.97283189816929
1557947901638,2.0,,,,,,,,,
1557947901649,,44.309575960729575,738.3642578125,,,,,,,
1557947901686,,,,2.5486714398978587,5.875370979309082,-5.995080947875977,1.416170358657837,,93.55545747692832,44.624320601733096
1557947901689,,34.65129237557366,738.3642578125,,,,,,,
1557947901729,,38.52340823266558,738.3642578125,,,,,,,
1557947901753,,,,4.025437770754358,,-5.310339450836182,1.799242615699768,,,44.99566876696652
1557947901754,,,,,4.63517427444458,,,,89.24245256325372,
1557947901756,2.0,,,,,,,,,
1557947901769,,31.387865681578585,,,,,,,,
1557947901821,3.0,,,4.5294507894153515,5.817910194396973,-5.492298603057861,1.5071499347686768,1000.219970703125,88.91214461499192,45.23229159170166
1557947901829,,34.4447736151535,,,,,,,,
1557947901843,,,56.1181640625,,,,,,,
1557947901869,,30.183970660042753,56.1181640625,,,,,,,
1557947901880,,,,4.874185151688878,4.903325080871582,-5.841852188110352,2.7042508125305176,,83.20576062006717,45.77128143040277
1557947901891,3.0,,,,,,,,,
1557947901909,,30.063568309119823,56.1181640625,,,,,,,
1557947901935,,,,5.042867764408129,5.305551052093506,-6.588842868804932,3.3267433643341064,,79.72030142623134,45.260580670807755
1557947901936,,,,,,,,,78.12618308527453,
1557947901949,,30.469785826980846,,,,,,,,
1557947901989,,32.07881526965157,0.0,,,,,,,
1557947902008,6.0,,,4.391276789712995,7.608773231506348,-10.333374977111816,2.627636432647705,1000.219970703125,77.91179710760622,45.294038926049616
1557947902012,6.0,,,,,,,,,
1557947902049,,37.60466895491394,,,,,,,,
1557947902082,,,,2.6052542488071553,8.29830265045166,-6.4595561027526855,3.7433342933654785,,78.35254238455798,45.294038926049616
1557947902089,,38.51601997328426,,,,,,,,
1557947902095,,,0.0,,,,,,,
1557947902129,,35.184806947885946,,,,,,,,
1557947902130,,,,2.4431598194575534,8.9064302444458,-7.733271598815918,1.7130513191223145,,88.70844788337462,44.995444318958015
1557947902145,6.0,,,,,,,,,
1557947902169,,35.572916678906736,,,,,,,,
1557947902177,,,570.6298828125,,,,,,,
1557947902191,2.0,,,2.8680388722359136,,-7.129932880401611,1.0426748991012573,1000.239990234375,,
1557947902192,,,,,8.274360656738281,,,,76.22597664685281,44.21730485022551
1557947902209,,34.4482243805341,570.6298828125,,,,,,,
1557947902249,,32.456966693418174,570.6298828125,,,,,,,
1557947902264,,,,3.945307786391058,9.08838939666748,-6.378153324127197,0.2190694510936737,,76.70480022842742,43.16178938222414
1557947902282,2.0,,,,,,,,,
1557947902309,,33.793713407140395,,,,,,,,
1557947902325,,,,3.8744629518532245,,,,,,
1557947902326,,,,,9.064447402954102,-5.9088897705078125,0.25737667083740234,,60.78946908486802,40.55058531144714
1557947902349,,29.751765759420273,,,,,,,,
1557947902355,,,0.0,,,,,,,
1557947902383,7.0,,,3.653338324434347,9.409213066101074,-6.430825710296631,1.416170358657837,1000.2599487304688,,36.96390208635097
1557947902384,,,,,,,,,42.9961193724057,
1557947902389,,28.11285533354852,,,,,,,,
1557947902399,7.0,,,,,,,,,
1557947902429,,27.362279646476246,,,,,,,,
1557947902446,,,,4.4209865580667,8.772355079650879,-7.857769966125488,3.1687259674072266,,21.565251672162844,35.41807524006546
1557947902469,,37.348534382542226,0.0,,,,,,,
1557947902507,,,,6.5797201293049286,8.724471092224121,-8.834604263305664,4.471171855926514,,8.109044761901941,34.29635705314344
1557947902508,,,,,,,,,5.3701423198214115,
1557947902509,,37.81841918346908,,,,,,,,
1557947902524,7.0,,,,,,,,,
1557947902569,,36.878010995766566,,,,,,,,
1557947902574,4.0,,,7.240236219061675,,-8.96389102935791,,1000.22998046875,,
1557947902575,,,,,7.905653953552246,,4.844666957855225,,12.631626346295604,34.09222716849261
1557947902580,,,775.1953125,,,,,,,
1557947902609,,37.43285389888785,775.1953125,,,,,,,
1557947902641,4.0,,,7.866484382370942,6.919242858886719,-9.227252960205078,4.298789024353027,,12.265855202089426,34.06391074067752
1557947902649,,39.16662792876246,775.1953125,,,,,,,
1557947902689,,42.82858143490511,,,,,,,,
1557947902691,,,,7.355576362977398,3.2417490482330322,-4.687847137451172,3.2549171447753906,,19.749862522854357,34.384154728280414
1557947902729,,41.49946850624556,,,,,,,,
1557947902736,,,46.71875,,,,,,,
1557947902770,5.0,,,7.061480693347503,7.196970462799072,-5.190629482269287,1.8088194131851196,1000.219970703125,46.22271439669811,34.2626625978494
1557947902773,5.0,,,,,,,,,
1557947902789,,34.70950373960721,46.71875,,,,,,,
1557947902826,,,,4.592741978914959,7.565677165985107,-6.761225700378418,-1.159990668296814,,61.69507703673088,33.72313774628567
1557947902829,,32.8511324753955,46.71875,,,,,,,
1557947902869,,31.0072656658212,,,,,,,,
1557947902890,,,,4.279993025872083,7.8098859786987305,-5.664681434631348,-2.4432828426361084,,59.24406365307175,31.753741009404667
1557947902907,5.0,,,,,,,,,
1557947902909,,30.378977239760374,0.0,,,,,,,
1557947902949,,31.08791335963602,,,,,,,,
1557947902954,,,,,,,,1000.199951171875,,
1557947902955,2.0,,,4.132354884060344,7.55131196975708,-5.171475887298584,-1.6292542219161987,,40.465766511347795,30.09468459598311
1557947902989,,29.47371424427697,0.0,,,,,,,
1557947903034,,,,2.8600589788797883,7.264008045196533,-5.339069843292236,0.13766659796237946,,57.556153154432366,28.865204296410013
1557947903046,2.0,,,,,,,,,
1557947903049,,28.912557113704295,,,,,,,,
1557947903073,,,,1.757242814044313,8.2312650680542,-5.224148273468018,0.7697358727455139,,,28.06795279900349
1557947903074,,,,,,,,,49.25773286005534,
1557947903089,,31.39136105321481,,,,,,,,
1557947903129,,33.41453588434385,0.0,,,,,,,
1557947903145,,,,0.9669682206412329,7.436390399932861,-5.161899089813232,0.15682020783424377,1000.1799926757813,49.6282569621502,28.06795279900349
1557947903161,2.0,,,,,,,,,
1557947903169,,32.19179833314537,,,,,,,,
1557947903194,,,,1.190453119962671,,-5.535394191741943,1.4927847385406494,,,27.22223333237437
1557947903195,,,,,8.078036308288574,,,,54.0928579244532,
1557947903209,,31.01362515326229,,,,,,,,
1557947903219,,,69.599609375,,,,,,,
1557947903249,,29.821317236915515,69.599609375,,,,,,,
1557947903261,,,,0.7571832462935986,8.485051155090332,-5.564124584197998,1.3634978532791138,,49.232246009167454,26.608457092115227
1557947903279,2.0,,,,,,,,,
1557947903309,,30.279572542236217,69.599609375,,,,,,,
1557947903328,,,,,,,,1000.219970703125,,
1557947903329,,,,0.795563984439402,11.037269592285156,-7.752425193786621,1.2102689743041992,,43.76140791795979,26.37138711491812
1557947903349,,29.688323158163527,,,,,,,,
1557947903389,,30.665743775895823,0.0,,,,,,,
1557947903395,,,,2.6833762534679666,10.156203269958496,-5.717353820800781,1.8950105905532837,,,26.254904800675426
1557947903396,2.0,,,,,,,,40.587207274790615,
1557947903429,,33.31852587980776,,,,,,,,
1557947903447,,,,2.8048816496824935,9.217676162719727,-4.721365928649902,2.5558102130889893,,36.54941458843791,25.330022287159434
1557947903469,,31.900753654443186,,,,,,,,
1557947903479,,,275.38045247395837,,,,,,,
1557947903512,5.0,,,2.399898121578814,8.815450668334961,-6.689399719238281,1.2102689743041992,1000.2599487304688,29.172106775339614,25.4625215585549
1557947903513,5.0,,,,,,,,,
1557947903529,,33.772973322123526,275.38045247395837,,,,,,,
1557947903569,,30.977396273552976,275.38045247395837,,,,,,,
1557947903575,,,0.0,,,,,,,
1557947903579,,,,1.9713515395462355,9.744400978088379,-6.162675380706787,0.6787561774253845,,28.844851921636803,25.280229510822743
1557947903609,,29.627027035428867,,,,,,,,
1557947903629,5.0,,,,,,,,,
1557947903646,,,,3.4391750069447693,,-7.091625213623047,3.317166566848755,,,25.02998220826392
1557947903647,,,,,7.603984832763672,,,,36.837518797818234,
1557947903649,,28.749553912080398,0.0,,,,,,,
1557947903689,,34.85205676559821,,,,,,,,
1557947903705,1.0,,,4.040816909233245,,-6.780379295349121,4.6291890144348145,1000.2599487304688,,
1557947903706,,,,,5.640739440917969,,,,30.600104670397968,24.85578404815464
1557947903729,,32.2504099618275,,,,,,,,
1557947903736,,,503.9990234375,,,,,,,
1557947903760,1.0,,,,,,,,,
1557947903771,,,,5.327339360550967,5.5545477867126465,-6.3973069190979,3.2166099548339844,,35.794016156802,25.82750470366789
1557947903789,,35.653326736845365,503.9990234375,,,,,,,
1557947903829,,28.848186611185813,503.9990234375,,,,,,,
1557947903833,,,,4.681937006615011,,-5.051765441894531,2.100912094116211,,,
1557947903834,,,,,5.272032260894775,,,,38.41769672267901,26.598308736053283
1557947903869,,29.535392277121183,503.9990234375,,,,,,,
1557947903898,2.0,,,4.867382259972732,4.520252704620361,-4.8937482833862305,1.3874398469924927,1000.2099609375,51.38655597528117,26.72714101210434
1557947903909,,28.490122638906186,,,,,,,,
1557947903949,,30.083253243614877,0.0,,,,,,,
1557947903971,,,,6.267203800367577,3.869029998779297,-4.2951979637146,3.8391025066375732,,50.25715004507373,27.74058535496653
1557947903989,,28.199957478075774,,,,,,,,
1557947904018,,,,5.990212404691532,3.8307228088378906,-5.027823448181152,0.20470423996448517,,112.70079190917585,28.48262688659329
1557947904034,2.0,,,,,,,,,
1557947904049,,28.6123717537621,0.0,,,,,,,
1557947904081,,,,1.9497733082195567,,,,1000.239990234375,,
1557947904082,1.0,,,,7.848193168640137,-5.137956619262695,-0.7003039717674255,,351.82202496899424,28.81683594670687
1557947904089,,37.08946805981847,,,,,,,,
1557947904129,,36.32161819986894,,,,,,,,
1557947904142,,,131.9185791015625,,,,,,,
1557947904154,,,,6.83292288439164,,,,,,
1557947904155,1.0,,,,11.554417610168457,-11.295844078063965,1.6508020162582397,,58.95766016079483,28.516310582784694
1557947904169,,33.71163238728798,131.9185791015625,,,,,,,
1557947904209,,33.3046492846746,131.9185791015625,,,,,,,
1557947904218,,,,8.688310983252109,,-7.915230751037598,4.226963043212891,,,
1557947904219,,,,,15.049951553344727,,,,27.593714944946782,27.0042588696881
1557947904267,,,,9.062335834989389,,,,1000.2599487304688,,
1557947904268,4.0,,,,15.030797958374023,-7.326257228851318,-0.9540894031524658,,19.74827279632501,25.93164186758512
1557947904269,,35.822876644073084,,,,,,,,
1557947904283,4.0,,,,,,,,,
1557947904309,,42.64883746484885,,,,,,,,
1557947904318,,,99.853515625,,,,,,,
1557947904333,,,,4.135619394760634,9.17936897277832,-6.081272125244141,-1.7968484163284302,,351.42181344967196,25.717892615858222
1557947904349,,38.18011264682526,99.853515625,,,,,,,
1557947904389,,33.03911526985924,99.853515625,,,,,,,
1557947904400,4.0,,,1.8369912228153964,6.517016887664795,-5.0900726318359375,1.9333178997039795,,17.620894266108678,25.19444380315658
1557947904429,,29.983204249571692,,,,,,,,
1557947904467,2.0,,,1.6502596650842496,5.817910194396973,-4.726154327392578,1.8950105905532837,1000.25,2.0158944750361343,25.76140537999737
1557947904469,,30.184744614729333,,,,,,,,
1557947904517,,,,3.629598003438527,,,,,,
1557947904518,2.0,,,,4.721365928649902,-4.5394062995910645,2.033874273300171,,7.5731327516971305,26.901486682225556
1557947904529,,28.426196392581218,0.0,,,,,,,
1557947904569,,28.824708763138098,,,,,,,,
1557947904584,,,,2.8956560222397445,5.564124584197998,-4.697423934936523,1.071405291557312,,6.639824967655329,27.21709112755495
1557947904609,,28.809141779006993,0.0,,,,,,,
1557947904645,3.0,,,3.8499975526479893,4.845864295959473,-5.305551052093506,1.4065934419631958,1000.25,25.36006720898149,27.604710811424443
1557947904649,,28.548618410841673,,,,,,,,
1557947904689,,31.366089412436402,0.0,,,,,,,
1557947904729,,36.3958193723755,,,,,,,,
1557947904782,,,,1.105804068995755,,-5.2672438621521,,,,
1557947904783,3.0,,,,7.422025203704834,,1.5310919284820557,,8.764567898625728,28.1771193782743
1557947904789,,33.622629983304996,,,,,,,,
1557947904804,,,129.23972800925924,,,,,,,
1557947904829,,35.99869431957419,129.23972800925924,,,,,,,
1557947904835,2.0,,,1.0559037154438595,8.604761123657227,-8.523358345031738,0.8990227580070496,1000.2599487304688,357.87058778095826,28.07952997478571
1557947904869,,34.01273422107853,129.23972800925924,,,,,,,
1557947904879,,,99.931640625,,,,,,,
1557947904909,,32.64123193223688,99.931640625,,,,,,,
1557947904914,,,,3.058701631438741,,-7.503427982330322,,,,
1557947904915,2.0,,,,8.719682693481445,,3.307589530944824,,20.673980287367897,28.07952997478571
1557947904949,,32.62119828716781,99.931640625,,,,,,,
1557947904957,,,64.375,,,,,,,
1557947904959,,,,4.119171185875251,9.337387084960938,-9.366117477416992,1.9285295009613037,,355.22506768521015,27.7658066667529
1557947905010,,30.439814675366254,64.375,,,,,,,
1557947905022,,,,3.8992121658774055,8.336610794067383,-6.593631267547607,2.958036184310913,1000.199951171875,353.6498228644774,27.60543476893438
1557947905049,,30.10324254255704,64.375,,,,,,,
1557947905050,2.0,,,,,,,,,
1557947905089,,28.60444071293392,,,,,,,,
1557947905095,,,,3.0925139452928994,6.933608055114746,-3.691859006881714,2.2589292526245117,,6.3897243577038125,27.146639245679246
1557947905129,,29.219813770149653,0.0,,,,,,,
1557947905157,,,,3.0908055020379757,,,,,,
1557947905158,,,,,6.512228488922119,-3.7253777980804443,0.8846575021743774,,351.5604867803907,27.090219727825872
1557947905169,,30.12050759764496,,,,,,,,
1557947905185,2.0,,,,,,,,,
1557947905209,,29.34004749918693,,,,,,,,
1557947905229,,,,,,,,1000.2899780273438,,
1557947905230,1.0,,,3.0540339948939295,6.651092529296875,-4.534617900848389,1.095347285270691,,351.46246502806457,26.661582419858167
1557947905269,,30.73651918366885,0.0,,,,,,,
1557947905274,,,,2.004727260465867,,-6.2392897605896,2.522291421890259,,,
1557947905275,,,,,5.760449409484863,,,,10.439299547261555,26.49339511720947
1557947905309,,31.07993523004239,,,,,,,,
1557947905321,1.0,,,,,,,,,
1557947905343,,,,2.1320360048771523,6.560112476348877,-6.813898086547852,3.561375141143799,,6.710445708578675,26.378210366649533
1557947905349,,34.196441239981354,0.0,,,,,,,
1557947905389,,34.73152072309669,,,,,,,,
1557947905416,,,,2.645101691384222,9.27034854888916,-8.346187591552734,3.159149169921875,1000.2899780273438,,26.543549058017526
1557947905417,,,,,,,,,24.855802880295926,
1557947905429,,32.2661386598263,,,,,,,,
1557947905439,,,98.5693359375,,,,,,,
1557947905440,1.0,,,,,,,,,
1557947905468,,,,7.16796422641206,13.73314094543457,-7.292738437652588,2.40736985206604,,1.412206711140641,26.306842876531718
1557947905469,,31.07074408182151,98.5693359375,,,,,,,
1557947905529,,36.0571352051364,98.5693359375,,,,,,,
1557947905534,,,,7.650527247790799,,,,,,
1557947905535,,,,,14.460978507995605,-8.183381080627441,1.646013617515564,,2.6099166674823664,26.308364643235
1557947905539,,,101.357421875,,,,,,,
1557947905569,,36.01159990677696,101.357421875,,,,,,,
1557947905577,1.0,,,,,,,,,
1557947905606,,,,7.162765801575719,8.643068313598633,-5.947196960449219,-0.9205705523490906,1000.3499755859375,,25.521168683356898
1557947905607,,,,,,,,,5.3898610759552525,
1557947905609,,29.146681392126222,101.357421875,,,,,,,
1557947905623,,,65.673828125,,,,,,,
1557947905649,,27.96521936629372,65.673828125,,,,,,,
1557947905656,,,,2.4656720832612904,6.2392897605896,-6.100425720214844,0.851138710975647,,9.1481615676974,26.07546844701683
1557947905689,,31.287133709850558,65.673828125,,,,,,,
1557947905703,1.0,,,,,,,,,
1557947905724,,,,4.889699245011398,4.113238334655762,-5.157110691070557,1.4401123523712158,,13.567118937098144,26.856285373592566
1557947905749,,33.17924550831176,,,,,,,,
1557947905789,,34.457125039542234,,,,,,,,
1557947905795,,,,5.559231086913905,,,,1000.3399658203125,,
1557947905796,15.0,,236.865234375,,3.8498764038085938,-4.0749311447143555,1.698686122894287,,20.772666275590836,28.42340678612381
1557947905829,,32.59923590363265,236.865234375,,,,,,,
1557947905843,15.0,,,5.334735606541267,4.343081951141357,-4.185064792633057,0.42018240690231323,,345.50796758135,29.67069232224867
1557947905869,,29.155603133415124,236.865234375,,,,,,,
1557947905906,,,,4.69850007330454,,,,,,
1557947905907,,,,,6.229712963104248,-5.583278179168701,-0.7817068696022034,,311.14776522568457,30.30742558051747
1557947905909,,31.157281864844922,236.865234375,,,,,,,
1557947905949,,32.29115385642637,,,,,,,,
1557947905982,9.0,,,4.234108328779951,8.14028549194336,-7.2113356590271,0.3866635859012604,1000.2899780273438,293.328774983078,30.444211797123113
1557947906009,,34.99097286748284,,,,,,,,
1557947906018,,,51.32666015625,,,,,,,
1557947906033,,,,4.509300158349499,9.734824180603027,-8.394071578979492,2.2158336639404297,,339.0795113552972,30.545049223130377
1557947906049,,31.536937338974873,51.32666015625,,,,,,,
1557947906089,,33.94861648194017,51.32666015625,,,,,,,
1557947906094,,,,5.337771813933419,,,,,,
1557947906095,,,,,10.429142951965332,-9.385271072387695,3.647566318511963,,11.60963111720207,29.71464363296541
1557947906120,9.0,,,,,,,,,
1557947906129,,29.645044216267898,,,,,,,,
1557947906165,6.0,,,5.190847580631383,8.877699851989746,-6.766014099121094,3.3315317630767822,1000.3399658203125,7.618979542727175,28.466999012334444
1557947906169,,28.552730160093425,0.0,,,,,,,
1557947906229,,28.632112975522432,,,,,,,,
1557947906232,,,,2.978700365684718,,-4.141968727111816,,,,
1557947906233,,,,,7.527369976043701,,1.578976035118103,,355.77580077902707,27.973023906795895
1557947906258,6.0,,,,,,,,,
1557947906269,,28.366741482758833,0.0,,,,,,,
1557947906301,,,,4.853599722611454,6.746860504150391,-2.456450939178467,0.3818751573562622,,353.82114834141026,27.421524079253768
1557947906309,,27.234881676497558,,,,,,,,
1557947906346,1.0,,,5.0282215931815015,6.708553314208984,-4.151545524597168,0.7122750282287598,1000.3399658203125,357.470904747523,27.288458741785487
1557947906349,,26.135241520983904,0.0,,,,,,,
1557947906389,,28.88897866105355,,,,,,,,
1557947906392,1.0,,,,,,,,,
1557947906413,,,,2.3876327038378995,7.661445617675781,-5.851428985595703,2.2254104614257813,,359.93639725843855,27.374989723787188
1557947906429,,34.98113037018539,,,,,,,,
1557947906440,,,49.75917271205357,,,,,,,
1557947906487,,,,5.075365085342306,9.385271072387695,-9.801861763000488,3.7241806983947754,,0.15802824587717623,28.650480307302736
1557947906489,,31.98597384539077,49.75917271205357,,,,,,,
1557947906529,,30.59451587820792,49.75917271205357,,,,,,,
1557947906537,1.0,,,5.020107274828024,11.152191162109375,-7.479485988616943,4.078522682189941,1000.2999877929688,11.636910892747153,30.96917864675107
1557947906569,,31.17225536232683,,,,,,,,
1557947906598,,,,3.7381700202234858,10.697293281555176,-7.575253963470459,1.5693992376327515,,10.794893709604423,34.03968275064116
1557947906609,,32.22744643029567,,,,,,,,
1557947906649,,29.49969593984356,0.0,,,,,,,
1557947906669,1.0,,,5.62449270715952,10.51054573059082,-6.718130111694336,-2.9077579975128174,,15.05714861019851,35.682771196277635
1557947906689,,29.413778690296652,,,,,,,,
1557947906734,,,,5.61937075910386,,,,1000.2899780273438,,
1557947906735,0.0,,,,7.603984832763672,-4.5394062995910645,-0.20709845423698425,,358.29365161913955,35.04140634120649
1557947906749,,27.509533251324495,0.0,,,,,,,
1557947906789,,33.11563263707407,,,,,,,,
1557947906807,,,,3.4652433799271454,,,,,,
1557947906808,0.0,,,,5.056553840637207,-3.845088005065918,2.076969861984253,,6.120492814773854,34.46548926914463
1557947906829,,37.92004650597788,,,,,,,,
1557947906839,,,47.3681640625,,,,,,,
1557947906851,,,,4.855310242598292,4.079719543457031,-4.8267107009887695,1.698686122894287,,,35.04440060292756
1557947906852,,,,,,,,,340.5300044783869,
1557947906869,,31.41471657423616,47.3681640625,,,,,,,
1557947906909,,34.490140293186094,47.3681640625,,,,,,,
