timestamp,AmbientLightSensor,DecibelSource,PitchSensor,LinearAccelerometerSensor,AccX,AccY,AccZ,BarometerSensor,CompassSensor,MagneticRotationSensor
1557947308584,,33.94758030551553,358.7353515625,,,,,,,
1557947308611,,,,0.5718124730682117,0.1388636976480484,1.2497732639312744,9.39365005493164,,76.5021485157531,46.07613240266711
1557947308624,,34.449999477347205,,,,,,,,
1557947308654,3.0,,,0.2643805411278915,-0.26336219906806946,1.4508862495422363,9.872490882873535,999.5499877929688,77.13519776878661,46.380708114692894
1557947308664,,35.17527432432825,,,,,,,,
1557947308699,,,,,,2.2840683460235596,7.8996686935424805,,67.88260004735878,
1557947308700,3.0,,,,0.1388636976480484,,,,,46.380708114692894
1557947308724,,33.88977793883109,,,,,,,,
1557947308734,,,100.771484375,,,,,,,
1557947308745,,,,1.8899547555341922,,,,,,
1557947308754,,,,,,,10.94030475616455,,80.68276387274534,
1557947308755,,,,,-0.1867477297782898,0.9481038451194763,,,80.68276387274534,46.380708114692894
1557947308764,,34.331529624684876,100.771484375,,,,,,,
1557947308804,,34.422035109530256,100.771484375,,,,,,,
1557947308807,,,,1.5509346758762759,,,,,,
1557947308822,,,100.263671875,,,,,,,
1557947308825,,,,,,,8.775946617126465,,,
1557947308826,4.0,,,,0.24420857429504395,2.3319525718688965,,999.5999755859375,80.68276387274534,46.380708114692894
1557947308844,,33.63547445862548,100.263671875,,,,,,,
1557947308861,,,,1.0872485253733453,,,,,,
1557947308884,,33.970499698025826,100.263671875,,,,,,,
1557947308892,,,,,0.29209262132644653,1.2832920551300049,9.479841232299805,,76.61944335436976,46.686721051725684
1557947308901,,,123.98094540550595,,,,,,,
1557947308902,,,123.98094540550595,,,,,,,
1557947308924,,35.49858510089906,123.98094540550595,,,,,,,
1557947308927,,,,0.7906144243219079,,,,,,
1557947308955,,,,,,,9.312247276306152,,71.10313669385732,
1557947308956,,,,,0.181959331035614,2.1116859912872314,,,,46.686721051725684
1557947308957,4.0,,,,,,,,,
1557947308984,,34.78220301776995,123.98094540550595,,,,,,,
1557947308994,,,,0.3710381315613741,,,,,,
1557947308995,,,92.52146402994791,,,,,,,
1557947309021,,,,,,2.9975404739379883,9.455899238586426,999.5700073242188,70.14582420997749,
1557947309022,,,,,-0.8188169598579407,,,,,46.943902849302305
1557947309024,,35.48396968566586,92.52146402994791,,,,,,,
1557947309064,,35.58366456407695,92.52146402994791,,,,,,,
1557947309066,,,,1.2605234631568043,,,,,,
1557947309073,,,,,-1.7812861204147339,1.2210428714752197,11.950657844543457,,81.76530787505737,46.943902849302305
1557947309074,,,99.896240234375,,,,,,,
1557947309094,4.0,,,3.078873751434201,,,,,,
1557947309104,,35.698725327085164,99.896240234375,,,,,,,
1557947309140,,,,,-1.9297266006469727,2.513911724090576,11.079168319702148,,76.69523796358936,46.943902849302305
1557947309144,,36.232015175316924,99.896240234375,,,,,,,
1557947309155,,,99.56298828125,,,,,,,
1557947309168,,,,2.4595266990941833,,,,,,
1557947309204,,35.90762792789772,99.56298828125,,,,,,,
1557947309213,,,,,-1.944091796875,2.2601263523101807,11.553220748901367,999.5499877929688,77.32612887684513,47.23113511856363
1557947309241,4.0,,,2.5739205032794135,,,,,,
1557947309246,,34.63850623930548,99.56298828125,,,,,,,
1557947309257,,,101.26953125,,,,,,,
1557947309284,,33.70064612209683,101.26953125,,,,,,,
1557947309287,,,,1.7890554369657932,-1.1252747774124146,3.184288263320923,9.618705749511719,,71.38142592140036,47.553444940744555
1557947309323,,,,,,,10.269927978515625,,77.0935267846603,
1557947309324,,33.67048653077173,101.26953125,,-1.1252747774124146,2.0829553604125977,,,,47.553444940744555
1557947309361,,,,1.0221751341017844,,,,,,
1557947309364,,34.480126917999044,101.26953125,,,,,,,
1557947309377,,,95.389404296875,,,,,,,
1557947309404,,34.4416357275419,95.389404296875,,,,,,,
1557947309405,,,,,,,7.914033889770508,,,
1557947309406,4.0,,,,-0.6033388376235962,2.188300371170044,,999.5799560546875,72.70763009216336,47.553444940744555
1557947309436,,,,1.90801844879444,,,,,,
1557947309464,,34.80962800180641,95.389404296875,,,,,,,
1557947309465,,,,,-0.8523358106613159,1.2449848651885986,9.288305282592773,,80.17611410049216,47.553444940744555
1557947309504,,34.51987406872937,,,,,,,,
1557947309513,,,,0.5674102303844926,-1.139639973640442,2.3511061668395996,9.65222454071045,,75.41795160766196,48.117047032719405
1557947309541,4.0,,,0.8929610484834902,,,,,,
1557947309544,,35.968679870591956,,,,,,,,
1557947309557,,,89.68963623046875,,,,,,,
1557947309584,,35.941285759503046,89.68963623046875,,,,,,,
1557947309591,,,,,,2.652775526046753,9.096769332885742,999.5799560546875,75.46841987543917,
1557947309592,,,,,-0.933738648891449,,,,,48.117047032719405
1557947309624,,35.68936297503714,89.68963623046875,,,,,,,
1557947309632,,,,1.0226896043063538,,,,,,
1557947309635,,,63.272344680059526,,,,,,,
1557947309664,,36.7413407816963,63.272344680059526,,,,,,,
1557947309670,,,,,,,14.589068412780762,,,
1557947309671,,,,5.275156331570636,-1.742978811264038,0.545877993106842,,,85.61133958536732,48.117047032719405
1557947309699,4.0,,,,,,,,,
1557947309701,,,,,,,10.62427043914795,,,
1557947309702,,,,,-0.9385270476341248,2.4181437492370605,,,75.4270357592581,48.117047032719405
1557947309724,,37.72609818770934,63.272344680059526,,,,,,,
1557947309731,,,,1.2347786159006984,,,,,,
1557947309736,,,52.900390625,,,,,,,
1557947309737,,,52.900390625,,,,,,,
1557947309764,,38.20862055464484,52.900390625,,,,,,,
1557947309799,,,,,,,14.25387954711914,,,
1557947309800,,,,,,0.06224924325942993,,,87.23857751360953,
1557947309801,,,,4.918494622897208,-1.1971008777618408,,,999.5499877929688,,48.117047032719405
1557947309804,,38.20715244428512,52.900390625,,,,,,,
1557947309813,,,52.3388671875,,,,,,,
1557947309828,,,,,-0.38307225704193115,1.5897499322891235,9.32661247253418,,77.23390766267158,48.117047032719405
1557947309829,4.0,,,,,,,,,
1557947309844,,35.75055777477092,52.3388671875,,,,,,,
1557947309870,,,,0.46698319934218724,,,,,,
1557947309884,,35.450184446505105,52.3388671875,,,,,,,
1557947309896,,,,,-0.028730420395731926,1.235408067703247,8.862137794494629,,78.23133384754692,48.117047032719405
1557947309940,,,,1.0801605689813456,,,,,,
1557947309944,,34.71977548923045,,,,,,,,
1557947309968,4.0,,,,-0.6368576288223267,0.7230489253997803,9.475052833557129,999.5899658203125,78.92768529380805,48.106238838651514
1557947309984,,34.25577096946438,,,,,,,,
1557947309998,,,89.90378243582589,,,,,,,
1557947310013,,,,0.9793714180730524,,,,,,
1557947310018,,,,,-0.8571242094039917,1.623268723487854,8.287528991699219,,77.95113216703629,48.106238838651514
1557947310024,,34.0709148016417,89.90378243582589,,,,,,,
1557947310042,,,,1.3234683360861415,,,,,,
1557947310064,,33.393102146676384,89.90378243582589,,,,,,,
1557947310095,,,,,,,7.86614990234375,,78.25774618906735,
1557947310096,,,,,-1.0869675874710083,1.6184803247451782,,,78.25774618906735,48.106238838651514
1557947310104,,35.167292317613295,89.90378243582589,,,,,,,
1557947310114,,,100.947265625,,,,,,,
1557947310124,,,,1.763443738813787,,,,,,
1557947310125,4.0,,,,,,,,,
1557947310144,,36.02441245323986,100.947265625,,,,,,,
1557947310165,,,,,-1.0295066833496094,1.091755986213684,9.470264434814453,999.5700073242188,78.25774618906735,
1557947310166,5.0,,,,,,,,,48.106238838651514
1557947310170,,,,0.8047093879167263,,,,,,
1557947310204,,35.394874350895854,100.947265625,,,,,,,
1557947310207,,,,,-1.5897499322891235,2.255337953567505,10.844536781311035,,78.34290498763903,48.106238838651514
1557947310219,,,119.72993396577381,,,,,,,
1557947310243,,,,1.6506041258907949,,,,,,
1557947310246,,37.88992353575185,119.72993396577381,,,,,,,
1557947310277,5.0,,,,-0.6512228846549988,0.9911994934082031,12.290634155273438,,83.28236802179805,48.106238838651514
1557947310284,,37.46421450530175,119.72993396577381,,,,,,,
1557947310323,,,,2.6730083716447304,,,,,,
1557947310324,,36.844134134777526,,,,,,,,
1557947310352,,,,,-0.8140285611152649,1.015141487121582,13.751097679138184,999.5700073242188,83.28236802179805,48.106238838651514
1557947310364,,36.04007736884863,,,,,,,,
1557947310373,,,361.689453125,,,,,,,
1557947310388,,,,4.008723045855628,,,,,,
1557947310395,,,,,-1.436521053314209,2.5761611461639404,10.427945137023926,,76.41573979256327,48.106238838651514
1557947310404,,35.16319522618965,361.689453125,,,,,,,
1557947310418,5.0,,,2.391234775141791,,,,,,
1557947310459,,,,,-1.6950948238372803,2.691082715988159,11.05522632598877,,76.96137628459894,48.106238838651514
1557947310464,,35.01432074233411,361.689453125,,,,,,,
1557947310479,,,355.2978515625,,,,,,,
1557947310504,,34.34202846060652,355.2978515625,,,,,,,
1557947310513,,,,2.9793747160143003,,,,,,
1557947310544,,33.53643189070931,355.2978515625,,,,,,,
1557947310545,,,,,,,9.1446533203125,,,
1557947310546,,,,2.159902712962246,-1.6759412288665771,2.0829553604125977,,999.5499877929688,76.23702789292992,48.12026823725347
1557947310574,5.0,,,,,,,,,
1557947310584,,32.92742003336554,,,,,,,,
1557947310617,,,,2.7340787018594446,-1.3024457693099976,1.7812861204147339,7.621941089630127,,77.06664999027635,47.97801828327193
1557947310624,,32.139227823117096,,,,,,,,
1557947310633,,,106.884765625,,,,,,,
1557947310634,,,106.884765625,,,,,,,
1557947310648,,,,,-1.5514427423477173,1.235408067703247,9.221267700195313,,78.03093609729876,48.01916534510335
1557947310684,,31.920568351925805,106.884765625,,,,,,,
1557947310688,,,,1.5844575337539126,,,,,,
1557947310718,5.0,,,,-1.5131354331970215,2.145204782485962,8.938752174377441,999.6300048828125,77.28726510046772,48.01916534510335
1557947310724,,31.8511478571047,106.884765625,,,,,,,
1557947310764,,32.43950142683851,106.884765625,,,,,,,
1557947310765,,,,2.197160479255064,,,,,,
1557947310793,,,,,,,8.78073501586914,,,
1557947310794,,,,,-0.8331822156906128,1.5466543436050415,,,73.77688254635052,48.065478679884976
1557947310796,,,,1.4031488769130918,,,,,,
1557947310804,,34.48365928022068,,,,,,,,
1557947310837,,,,,0.06703764945268631,0.4405331015586853,10.988188743591309,,78.59163998664343,48.065478679884976
1557947310844,,35.66625221122794,,,,,,,,
1557947310857,,,231.879638671875,,,,,,,
1557947310865,,,,1.3052235946716975,,,,,,
1557947310866,5.0,,,,,,,,,
1557947310884,,35.710973110081994,231.879638671875,,,,,,,
1557947310910,,,,,,,14.36880111694336,,79.49398310808294,
1557947310911,,,,,-1.1875240802764893,0.8858546018600464,,999.6499633789063,79.45783091680607,48.01916534510335
1557947310940,,,,4.739150455814489,,,,,,
1557947310944,,37.2457297969833,231.879638671875,,,,,,,
1557947310984,,35.57649975803729,,,,,,,,
1557947310988,,,,,-0.2346317619085312,0.40701428055763245,14.54597282409668,,80.57878107282107,47.97801828327193
1557947310989,,,,4.828421475588358,,,,,,
1557947311015,5.0,,,,,,,,,
1557947311024,,37.770595816857444,,,,,,,,
1557947311029,,,,,,,12.8748197555542,,81.74812311910557,
1557947311030,,,,,,0.4213795065879822,,,,
1557947311031,,,,,-0.8858546018600464,,,,,47.637381603501254
1557947311037,,,59.689511253720234,,,,,,,
1557947311061,,,,3.256044635410523,,,,,,
1557947311064,,38.22281775184922,59.689511253720234,,,,,,,
1557947311104,,35.01547697183338,59.689511253720234,,,,,,,
1557947311107,,,,,,,8.244433403015137,,,
1557947311108,,,,,0.043095629662275314,1.1204863786697388,,999.6699829101563,75.23525087755331,47.637381603501254
1557947311113,,,44.86328125,,,,,,,
1557947311139,,,,1.5184953389729,,,,,,
1557947311144,,35.89884645346822,44.86328125,,,,,,,
1557947311168,5.0,,,,-0.3016694188117981,1.0295066833496094,9.26915168762207,,77.54070609981022,47.637381603501254
1557947311199,,,,0.7599681594101563,,,,,,
1557947311204,,33.16232739841381,44.86328125,,,,,,,
1557947311228,,,,,-0.06224924325942993,1.2641384601593018,7.99064826965332,,74.22665733338505,47.637381603501254
1557947311244,,32.83861289205075,,,,,,,,
1557947311272,,,,1.765669898078376,,,,,,
1557947311278,,,,,-0.38307225704193115,1.1971008777618408,9.604340553283691,999.5999755859375,76.90561462021492,47.637381603501254
1557947311284,,33.03978931518797,,,,,,,,
1557947311296,,,88.9068603515625,,,,,,,
1557947311301,5.0,,,,,,,,,
1557947311303,,,,0.559627936094147,,,,,,
1557947311324,,33.256113260605076,88.9068603515625,,,,,,,
1557947311346,,,,,,,6.85100793838501,,,
1557947311347,,,,,0.06703764945268631,2.03507137298584,,,66.14834671520083,47.85530381101179
1557947311364,,38.2493162216268,88.9068603515625,,,,,,,
1557947311377,,,,2.907513415632843,,,,,,
1557947311418,,,,,0.3878606855869293,0.6847416758537292,8.991424560546875,,79.77990848711806,47.85530381101179
1557947311424,,37.75809522267234,,,,,,,,
1557947311447,5.0,,,1.007570045345921,,,,,,
1557947311464,,37.74816732249042,,,,,,,,
1557947311490,,,,,,2.250549554824829,11.05522632598877,999.6599731445313,81.28153923652371,
1557947311491,,,,,-0.6033388376235962,,,,,47.820185100084714
1557947311492,,,,1.73606474072731,,,,,,
1557947311504,,38.805574699366055,,,,,,,,
1557947311516,,,43.466796875,,,,,,,
1557947311544,,36.961838181525465,43.466796875,,,,,,,
1557947311565,,,,,-0.569819986820221,0.6512228846549988,13.018471717834473,,84.01313679128691,47.781690736562965
1557947311566,,,,3.4011483441028783,,,,,,
1557947311584,,36.59072470389041,43.466796875,,,,,,,
1557947311595,,,44.7607421875,,-1.8531121015548706,1.7621324062347412,12.252326965332031,,80.68774991083944,47.781690736562965
1557947311597,5.0,,,,,,,,,
1557947311624,,38.665184889003285,44.7607421875,,,,,,,
1557947311648,,,,3.1847216895657042,,,,,,
1557947311684,,35.402627845038985,44.7607421875,,,,,,,
1557947311693,,,,,,,10.734403610229492,,80.68774991083944,
1557947311694,,,,2.4472926108660285,-1.4652514457702637,2.75812029838562,,999.6300048828125,75.5077481046801,47.781690736562965
1557947311724,,34.66668862920814,,,,,,,,
1557947311727,,,,,,,11.198878288269043,,,
1557947311728,,,,,-1.8483237028121948,2.8203697204589844,,,76.43853896401276,
1557947311734,5.0,,,,,,,,,
1557947311756,,,,2.8627719400158287,,,,,,
1557947311764,,34.90125055862426,,,,,,,,
1557947311775,,,48.8330078125,,,,,,,
1557947311804,,33.14161064691004,48.8330078125,,,,,,,
1557947311805,,,,,-0.8762778043746948,2.3702597618103027,8.905233383178711,,74.662348270351,47.793304651200074
1557947311808,,,,1.7678085598455806,,,,,,
1557947311844,,33.54051786605509,48.8330078125,,,,,,,
1557947311856,,,47.894287109375,,,,,,,
1557947311893,,,,,,,8.694543838500977,,,
1557947311894,6.0,,,1.0827904526969192,-0.19153612852096558,1.3838485479354858,,999.6300048828125,73.77266831963266,47.49442211608765
1557947311895,6.0,,,,,,,,,
1557947311904,,31.917737391885485,47.894287109375,,,,,,,
1557947311911,,,,,-0.6703764796257019,2.499546527862549,9.623494148254395,,73.22676545021937,47.49442211608765
1557947311944,,32.25740857397518,47.894287109375,,,,,,,
1557947311957,,,,1.394487866493527,,,,,,
1557947311984,,32.447820605213906,,,,,,,,
1557947311993,,,,,-0.19632454216480255,2.7964274883270264,7.904457092285156,,67.5383448528118,47.456086355384656
1557947312024,,39.6804427352659,,,,,,,,
1557947312033,,,,2.1431092931350415,,,,,,
1557947312036,,,,,-0.5363011956214905,1.2880805730819702,12.103886604309082,999.6399536132813,82.79747240205131,
1557947312037,6.0,,,,,,,,,47.456086355384656
1557947312041,,,1378.125,,,,,,,
1557947312064,,38.84657177198156,1378.125,,,,,,,
1557947312083,,,,2.532860702630175,,,,,,
1557947312101,,,,,-0.7709329724311829,2.3798365592956543,10.322600364685059,,76.8673860514304,47.163227457132955
1557947312104,,36.89445757243493,1378.125,,,,,,,
1557947312146,,,,1.0471030598937912,,,,,,
1557947312164,6.0,34.8431800873243,1378.125,,-2.2457611560821533,0.9672574996948242,14.751873970031738,,88.3800592182696,47.192902263140034
1557947312204,,36.69398099756198,,,,,,,,
1557947312211,,,,5.5549958434548605,,,,,,
1557947312240,,,,,-1.2306196689605713,2.2840683460235596,11.399991035461426,999.6900024414063,83.07480540311053,47.33254718823902
1557947312244,,35.032408726747896,,,,,,,,
1557947312258,,,30.7900390625,,,,,,,
1557947312284,,33.27996602150457,30.7900390625,,,,,,,
1557947312287,,,,2.0512808636209523,,,,,,
1557947312324,,32.4246132095002,30.7900390625,,,,,,,
1557947312334,,,,1.9367955065278433,-1.0199298858642578,1.5131354331970215,11.467028617858887,,89.81234988722122,47.000638550012134
1557947312336,6.0,,,,,,,,,
1557947312363,,,,,-0.689530074596405,2.1547815799713135,9.81024169921875,,85.79429303247531,46.62070329580782
1557947312365,,31.74742249991159,,,,,,,,
1557947312397,,,,0.6507336968934477,,,,,,
1557947312422,,,,,,,,,,46.782581949377814
1557947312423,,,,,-0.5746083855628967,1.1635819673538208,10.734403610229492,999.6699829101563,93.80111206061702,
1557947312424,,31.421573423236964,0.0,,,,,,,
1557947312445,,,,1.160234339491027,,,,,,
1557947312464,,33.75303266758835,,,,,,,,
1557947312492,6.0,,,,-0.49799394607543945,2.561795711517334,7.712920665740967,,84.20410888048048,46.36636876564305
1557947312504,,36.025605551177165,,,,,,,,
1557947312520,,,31.17620849609375,,,,,,,
1557947312544,,36.23572575098042,31.17620849609375,,,,,,,
1557947312545,,,,2.0934810180969694,,,,,,
1557947312547,,,,,,,12.046425819396973,,,
1557947312566,,,,,-0.5841852426528931,1.015141487121582,,,98.84502917775296,46.25883754445583
1557947312584,,34.630781560972224,31.17620849609375,,,,,,,
1557947312596,,,44.16015625,,,,,,,
1557947312605,,,,2.4984068562702126,,,,,,
1557947312623,,,,,,,9.412803649902344,,103.87323002960875,
1557947312624,,,,,-0.7996633648872375,2.427720546722412,,999.6900024414063,,46.1651382998016
1557947312626,6.0,,,,,,,,,
1557947312644,,34.74902655986904,44.16015625,,,,,,,
1557947312671,,,,0.9147342267757728,,,,,,
1557947312675,,,,,,1.968033790588379,10.408791542053223,,98.86636668872012,
1557947312676,,,,,-1.7717092037200928,,,,,45.895751623957445
1557947312684,,33.70952920730397,44.16015625,,,,,,,
1557947312699,,,,1.737452345818929,,,,,,
1557947312724,,33.18995931214377,,,,,,,,
1557947312764,,31.426201628900902,,,,,,,,
1557947312775,,,363.720703125,,,,,,,
1557947312787,,,,2.637955168006899,-2.4181437492370605,0.7852981686592102,11.165359497070313,,103.6300821253455,46.457938352585096
1557947312788,6.0,,,,,,,,,
1557947312804,,34.82385427489391,363.720703125,,,,,,,
1557947312822,,,,,-2.3271639347076416,2.6001031398773193,8.503006935119629,999.75,107.36456318613085,46.570591860993844
1557947312826,,,,2.4905929965424436,,,,,,
1557947312844,,33.93688971327762,363.720703125,,,,,,,
1557947312904,,32.33191705210387,363.720703125,2.890857749022848,-2.8395233154296875,0.8858546018600464,11.510124206542969,,106.9558378360081,46.38986907147801
1557947312917,,,520.9375,,,,,,,
1557947312934,6.0,,,,-2.360682964324951,2.073378562927246,10.183736801147461,,104.48664248877844,46.646114075079815
1557947312944,,34.62798724179275,520.9375,,,,,,,
1557947312982,,,,1.8221791401218126,,,,,,
1557947312984,,31.80005141346318,520.9375,,,,,,,
1557947312995,7.0,,,,-1.656787633895874,1.1779472827911377,10.715250015258789,999.6900024414063,107.355048732617,46.68061632346059
1557947313024,,31.53567169676409,,,,,,,,
1557947313058,,,,1.2884290121179642,,,,,,
1557947313064,,31.414839054627283,0.0,,,,,,,
1557947313088,,,,1.2032579125644114,-1.7908629179000854,2.0590133666992188,9.642647743225098,,106.9362488534685,46.894775325726236
1557947313090,7.0,,,,,,,,,
1557947313104,,30.798425512990217,,,,,,,,
1557947313139,,,,,-1.7381904125213623,1.5466543436050415,9.475052833557129,,109.73406509223497,47.0412578443136
1557947313164,,30.42469476978936,0.0,,,,,,,
1557947313168,,,,0.9076524274932387,,,,,,
1557947313204,,31.108097125340038,,,,,,,,
1557947313217,15.0,,,1.1346714945898506,-1.50355863571167,1.8100165128707886,9.743204116821289,999.75,108.84636589637591,49.23829824629071
1557947313244,,40.183738446738616,,,,,,,,
1557947313245,15.0,,,,,,,,,
1557947313252,,,,,-1.039083480834961,2.4133553504943848,9.288305282592773,,105.10545079739245,51.900001672880755
1557947313258,,,131.55020577566964,,,,,,,
1557947313284,,34.56575726990917,131.55020577566964,,,,,,,
1557947313292,,,,1.4344651071340861,,,,,,
1557947313321,,,,,,,11.78785228729248,,,
1557947313322,,,,,-0.6703764796257019,1.091755986213684,,,111.67529364681181,54.516604148357
1557947313324,,33.984165662595466,131.55020577566964,,,,,,,
1557947313367,,,,2.059611407358803,,,,,,
1557947313384,,33.71688348265033,,,,,,,,
1557947313395,,,,,,,10.538078308105469,,,
1557947313396,27.0,,,,0.009576806798577309,1.647210717201233,,999.6699829101563,107.17546939895902,56.68280221267213
1557947313424,,32.94564615600232,,,,,,,,
1557947313437,,,149.7257341657366,,,,,,,
1557947313443,,,,1.165858170247275,,,10.442310333251953,,106.20921619745567,
1557947313444,,,,,-0.6607996821403503,1.8722656965255737,,,,58.78078000730003
1557947313464,,32.09778828615335,149.7257341657366,,,,,,,
1557947313472,,,,1.0442735033009074,,,,,,
1557947313504,,37.2194000353676,149.7257341657366,,,,,,,
1557947313518,,,,,-1.2066776752471924,0.33518823981285095,11.783063888549805,,108.86700672804773,61.23569209180145
1557947313544,,35.67214392223213,149.7257341657366,,,,,,,
1557947313547,27.0,,,2.352570884682554,,,,,,
1557947313584,,35.28267611213962,,,,,,,,
1557947313594,30.0,,,1.6490042195910986,-1.3024457693099976,0.11971008777618408,10.533289909362793,999.6599731445313,108.22248275720864,63.39116691645443
1557947313634,,,,,,,9.599552154541016,,,
1557947313635,,,,,-1.9967641830444336,0.3208230137825012,,,107.59217241003233,65.01876766810004
1557947313644,,33.72655636833132,,,,,,,,
1557947313653,,,573.3642578125,,,,,,,
1557947313668,,,,1.8763419753066681,,,,,,
1557947313684,,33.48740805021662,573.3642578125,,,,,,,
1557947313717,,,,,,,11.218031883239746,,,
1557947313718,30.0,,,,-1.886630892753601,-0.7134721279144287,,,108.94556073369202,66.92144849300638
1557947313724,,32.482375912990264,573.3642578125,,,,,,,
1557947313751,,,,2.884464772522934,,,,,,
1557947313764,,31.31689657728744,,,,,,,,
1557947313780,31.0,,,,-1.2737152576446533,0.9385270476341248,8.277952194213867,999.72998046875,107.27472570797767,68.87764651217694
1557947313804,,30.625091256876978,0.0,,,,,,,
1557947313813,,,,1.7201533050747526,,,,,,
1557947313843,,,,,-1.37906014919281,0.790086567401886,9.249998092651367,,104.74361469592185,70.02728188939315
1557947313844,,30.90419538292631,,,,,,,,
1557947313848,31.0,,,,,,,,,
1557947313889,,,,1.076326999457436,,,,,,
1557947313890,,,,,-1.0007762908935547,1.192312479019165,9.81024169921875,,102.42775026536981,71.76273493553076
1557947313904,,31.39403324584164,0.0,,,,,,,
1557947313918,,,,0.2845684420616453,,,,,,
1557947313944,,30.971547775357088,,,,,,,,
1557947313965,36.0,,,,-0.4213795065879822,0.9002198576927185,10.360907554626465,999.6799926757813,99.80878936020929,73.01493156993628
1557947313984,,31.09750751408415,0.0,,,,,,,
1557947313994,36.0,,,0.9794238172194532,,,,,,
1557947314024,,30.986017290097074,,,,,,,,
1557947314040,,,,,-0.7757213711738586,1.015141487121582,11.409567832946777,,100.41500279999377,
1557947314041,,,,,,,,,,73.27285059077155
1557947314043,,,,1.8664582556229083,,,,,,
1557947314064,,32.20715800288775,0.0,,,,,,,
1557947314117,,,,1.9319058536076155,-0.7134721279144287,1.1683704853057861,11.241973876953125,,97.90231280812947,73.26432036966453
1557947314123,,31.778730318970332,,,,,,,,
1557947314145,,,,,,,10.806229591369629,,,
1557947314146,36.0,,,,-1.0821791887283325,0.6416460275650024,,999.72998046875,92.52967234661912,72.94477796460255
1557947314164,,32.5767257628519,,,,,,,,
1557947314174,,,89.90087890625,,,,,,,
1557947314195,,,,1.6829365379077728,,,,,,
1557947314204,,31.750359089268457,89.90087890625,,,,,,,
1557947314228,,,,,,,12.20923137664795,,,
1557947314229,,,,,-1.0199298858642578,0.14844051003456116,,,94.5114585644875,72.77486275568583
1557947314244,,33.98148420008631,89.90087890625,,,,,,,
1557947314263,,,,2.941805990952381,,,,,,
1557947314284,,33.30974881776177,89.90087890625,,,,,,,
1557947314294,,,,,-1.3694833517074585,1.7525556087493896,8.603564262390137,,88.69569592019423,73.9735753425307
1557947314296,35.0,,,,,,,,,
1557947314324,,31.27999035531078,,,,,,,,
1557947314327,,,,1.1454749269309823,,,,,,
1557947314358,32.0,,,,-2.1116859912872314,0.19632454216480255,10.720038414001465,999.699951171875,82.6942136021791,74.65132218024864
1557947314361,,,,1.74798795291756,,,,,,
1557947314384,,33.24674207028374,,,,,,,,
1557947314396,,,92.23291015625,,,,,,,
1557947314411,,,,,-1.1683704853057861,0.7326257228851318,10.121487617492676,,84.75036691973054,75.88636140907023
1557947314424,,33.12402941726974,92.23291015625,,,,,,,
1557947314441,32.0,,,0.5313898912136642,,,,,,
1557947314464,,32.492267742047936,92.23291015625,,,,,,,
1557947314475,,,89.3677978515625,,,,,,,
1557947314489,,,,,,,10.269927978515625,,81.80773701018148,
1557947314490,,,,1.3539029622684629,-1.9345149993896484,1.6711528301239014,,,79.38329306239376,76.26073593352804
1557947314504,,32.89523922405181,89.3677978515625,,,,,,,
1557947314544,,32.50056031628154,89.3677978515625,,,,,,,
1557947314556,,,45.458984375,,,,,,,
1557947314566,24.0,,,0.6257238249796558,-1.0295066833496094,0.9959878921508789,9.115922927856445,999.6599731445313,77.0394180260555,76.94342460696775
1557947314584,,30.823694209632876,45.458984375,,,,,,,
1557947314595,24.0,,,,-0.49320554733276367,0.828393816947937,9.800664901733398,,76.83473774719772,76.69400471677743
1557947314644,,30.442634614255763,45.458984375,,,,,,,
1557947314645,,,,0.5938324620053756,,,,,,
1557947314673,,,,,,,9.422380447387695,,74.87904285195879,
1557947314674,,,,,-0.6177040338516235,1.455674648284912,,,74.00909531775261,76.45142482629869
1557947314684,,31.035523401815922,,,,,,,,
1557947314710,,,,0.7809178218369622,,,,,,
1557947314724,,29.980424004495497,0.0,,,,,,,
1557947314740,20.0,,,,-0.9816226959228516,1.3934253454208374,9.192537307739258,999.739990234375,73.55932736090728,76.86416689085334
1557947314764,,29.824455567272633,,,,,,,,
1557947314776,,,,0.7793723621950885,,,,,,
1557947314804,,30.928576556077296,0.0,,,,,,,
1557947314805,,,,,-0.8331822156906128,1.37906014919281,8.593987464904785,,73.90666297076996,76.86416689085334
1557947314853,,,,1.2891615396079996,,,,,,
1557947314854,,,,,-1.2976573705673218,1.8100165128707886,9.159018516540527,,73.96409120131142,77.29792944934402
1557947314864,,32.07902269073573,,,,,,,,
1557947314883,20.0,,,1.2247037957643552,,,,,,
1557947314904,,33.213590097857534,,,,,,,,
1557947314919,21.0,,,,-1.2306196689605713,1.9536685943603516,9.077615737915039,999.6900024414063,73.81775439834388,77.29792944934402
1557947314944,,30.64980068847734,,,,,,,,
1557947314948,,,,1.2957342255073936,,,,,,
1557947314955,,,186.04695638020831,,,,,,,
1557947314984,,34.46458040140535,186.04695638020831,,,,,,,
1557947314996,,,,,,,9.642647743225098,,,
1557947314997,,,,,-1.139639973640442,1.8387469053268433,,,73.91265304667206,77.64798840571848
1557947315001,,,,0.9746232270687857,,,,,,
1557947315024,,38.10942176299114,186.04695638020831,,,,,,,
1557947315050,21.0,,,,-0.38307225704193115,1.479616641998291,9.374496459960938,,73.41424731274702,77.5067746025538
1557947315064,,35.98973418436251,,,,,,,,
1557947315084,,,,0.8005097836236704,,,,,,
1557947315114,19.0,,,,-1.455674648284912,-0.9385270476341248,14.000094413757324,999.6799926757813,79.26235773294951,77.06847675470873
1557947315124,,34.814299375059036,,,,,,,,
1557947315133,,,58.4716796875,,,,,,,
1557947315148,,,,4.795718174713699,,,,,,
1557947315164,,33.176129951691244,58.4716796875,,,,,,,
1557947315179,,,,,-1.6041151285171509,1.1827356815338135,12.54442024230957,,76.15028449047077,76.93256862079615
1557947315183,19.0,,,,,,,,,
1557947315204,,32.52485276783598,58.4716796875,,,,,,,
1557947315214,,,77.236328125,,,,,,,
1557947315234,,,,2.931450153341496,-1.3646949529647827,0.3974374830722809,13.047202110290527,,77.70370173416342,76.71388478489195
1557947315244,,36.564514319054325,77.236328125,,,,,,,
1557947315264,,,,3.446221956035866,,,,,,
1557947315284,,35.297699819958396,77.236328125,,,,,,,
1557947315293,,,76.10542805989583,,,,,,,
1557947315316,,,,,,,10.360907554626465,,79.8834609851246,
1557947315317,16.0,,,,-0.29209262132644653,-0.45489832758903503,,999.739990234375,81.38510539490858,76.62884543149333
1557947315324,,34.78967750012588,76.10542805989583,,,,,,,
1557947315345,,,,1.6777998852624147,,,,,,
1557947315346,16.0,,,,,,,,,
1557947315379,,,,,0.7565677165985107,-0.06224924325942993,8.244433403015137,,79.82935905670894,
1557947315380,,,,,,,,,,76.9063726825503
1557947315384,,34.29672389647139,76.10542805989583,,,,,,,
1557947315395,,,111.68798828125,,,,,,,
1557947315408,,,,2.398248223903654,,,,,,
1557947315424,,34.60686154012044,111.68798828125,,,,,,,
1557947315458,,,,1.6592904739260008,-0.2106897532939911,-0.6560112833976746,10.044873237609863,,82.41586973312275,76.82050605661867
1557947315464,,34.24466293649693,111.68798828125,,,,,,,
1557947315476,,,72.77608235677084,,,,,,,
1557947315487,16.0,,,,,,,,,
1557947315490,14.0,,,,-1.7956513166427612,1.3120225667953491,10.69130802154541,999.7699584960938,83.92924157771165,77.01707839520064
1557947315504,,34.603297923021614,72.77608235677084,,,,,,,
1557947315538,,,,1.4054173865694852,,,,,,
1557947315544,,35.013527884287925,72.77608235677084,,,,,,,
1557947315557,,,72.0604248046875,,,,,,,
1557947315573,,,,,,,8.799888610839844,,,
1557947315574,,,,1.1173093502578344,-1.0965443849563599,1.2401964664459229,,,79.80384830015896,76.93387009561792
1557947315604,,36.03983134960237,72.0604248046875,,,,,,,
1557947315638,14.0,,,,-1.4700398445129395,2.2649147510528564,7.775169849395752,,79.03059575403262,77.18173734508134
1557947315644,,37.373194342725846,72.0604248046875,,,,,,,
1557947315675,,,,2.5368985858656314,,,,,,
1557947315679,10.0,,,,-4.132391929626465,2.6575639247894287,10.370484352111816,999.7099609375,80.32995045116832,77.11413991788693
1557947315684,,37.097725564060624,72.0604248046875,,,,,,,
1557947315696,,,88.28953334263393,,,,,,,
1557947315702,,,,3.0613285860540995,,,,,,
1557947315724,,38.99568481085779,88.28953334263393,,,,,,,
1557947315759,,,,,-0.20111294090747833,1.2497732639312744,7.382521152496338,,79.89195091026295,77.06971243861501
1557947315764,,40.84333520505215,88.28953334263393,,,,,,,
1557947315774,,,111.81429036458334,,,,,,,
1557947315794,,,,2.779181579214309,,,,,,
1557947315795,10.0,,,,,,,,,
1557947315804,,40.53321024952825,111.81429036458334,,,,,,,
1557947315827,,,,,,,15.723919868469238,,86.03184018161915,
1557947315828,,,,,-4.347870349884033,-1.4939818382263184,,,,77.16702702694234
1557947315856,,,,6.820130720479893,,,,,,
1557947315864,,52.89832273948867,111.81429036458334,,,,,,,
1557947315901,6.0,,,2.8011685453434225,-5.5976433753967285,0.14365209639072418,9.489418029785156,999.7599487304688,85.65876158877472,76.99753356971509
1557947315904,,48.97066719670459,,,,,,,,
1557947315933,6.0,,,,,,,,,
1557947315935,,,,,-8.489839553833008,-1.53707754611969,16.595409393310547,,84.71879095519762,74.73908221159802
1557947315944,,38.6878885476045,,,,,,,,
1557947315953,,,72.1728515625,,,,,,,
1557947315984,,36.86390736358826,72.1728515625,,,,,,,
1557947315986,,,,9.021488814880374,,,,,,
1557947316016,,,,,-4.309563159942627,2.049436569213867,6.271611213684082,,83.57225491055175,72.66525994307042
1557947316024,,35.01166281385367,72.1728515625,,,,,,,
1557947316034,,,65.8203125,,,,,,,
1557947316050,,,,3.4374245375239694,,,,,,
1557947316064,,41.4159866097366,65.8203125,,,,,,,
1557947316080,3.0,,,,-2.8395233154296875,-1.7046716213226318,10.475829124450684,999.7899780273438,88.32504887469429,71.27678497739332
1557947316081,3.0,,,,,,,,,
1557947316119,,,,2.181796786355105,,,,,,
1557947316124,,46.041308100272296,65.8203125,,,,,,,
1557947316149,,,,3.6048748812609155,-3.2561142444610596,1.139639973640442,12.72637939453125,,78.75240214913799,71.96763169341155
1557947316164,,46.7934193398891,,,,,,,,
1557947316198,,,,,-2.853888511657715,0.7661445140838623,5.127182960510254,,83.23739122611352,71.66352015364211
1557947316204,,42.77589220350643,,,,,,,,
1557947316215,,,249.13238525390625,,,,,,,
1557947316227,,,,4.761630025385974,,,,,,
1557947316229,3.0,,,,,,,,,
1557947316244,,42.31919397937047,249.13238525390625,,,,,,,
1557947316282,,,,3.9977930656490903,-3.5051112174987793,0.8906430602073669,12.697649002075195,999.7699584960938,83.78520654849439,70.07174831607406
1557947316284,,41.47274187112419,249.13238525390625,,,,,,,
1557947316319,,,,,-3.993528366088867,0.8810662031173706,8.464699745178223,,83.57362094838572,70.3326409610761
1557947316344,,40.37699900347966,249.13238525390625,,,,,,,
1557947316352,,,,1.3766379570603653,,,,,,
1557947316363,,,298.9683314732143,,,,,,,
1557947316384,,42.774863115346584,298.9683314732143,,,,,,,
1557947316392,,,,,,,10.447098731994629,,84.63740242104768,
1557947316393,3.0,,,,-3.8067808151245117,1.742978811264038,,,77.42670341237357,66.93399809067762
1557947316424,,45.09450453753287,298.9683314732143,,,,,,,
1557947316454,5.0,,,2.6604634694339224,-4.371812343597412,-0.19153612852096558,9.029731750488281,999.719970703125,73.60024702422481,61.31239770101093
1557947316464,,44.61248538244699,,,,,,,,
1557947316483,,,,1.6323719799324325,,,,,,
1557947316504,,43.58399211208283,,,,,,,,
1557947316513,,,47.03125,,,,,,,
1557947316538,,,,5.32500502895064,-7.546523571014404,1.278503656387329,13.023260116577148,,77.73212898148904,58.248090971087876
1557947316540,5.0,,,,,,,,,
1557947316544,,36.740596807867625,47.03125,,,,,,,
1557947316578,,,,,,,12.24275016784668,,82.13358484491528,
1557947316579,,,,,-1.8579005002975464,-0.2777273952960968,,,,56.08582693715829
1557947316606,,35.39820204874173,47.03125,,,,,,,
1557947316615,,,,3.495356476685731,,,,,,
1557947316618,,,39.3359375,,,,,,,
1557947316644,,37.09576938735454,39.3359375,,,,,,,
1557947316682,,,,,,1.680729627609253,12.443862915039063,999.7899780273438,81.59131563614045,
1557947316683,8.0,,,3.1936136593616378,-2.9257144927978516,,,,,57.51808465649303
1557947316685,,34.5531548743852,39.3359375,,,,,,,
1557947316717,,,,,0.9576807022094727,0.2106897532939911,8.58919906616211,,93.56630381733027,57.676685618160995
1557947316719,8.0,,,,,,,,,
1557947316724,,33.80911598587653,,,,,,,,
1557947316725,,,,2.4748767205563804,,,,,,
1557947316764,,37.13542385478397,,,,,,,,
1557947316774,,,39.287109375,,,,,,,
1557947316796,,,,,-0.1628057211637497,-0.9672574996948242,4.107253074645996,,108.99896598281236,60.48553725209697
1557947316797,,,,6.780223575382875,,,,,,
1557947316804,,38.24926849365719,39.287109375,,,,,,,
1557947316830,,,,,,,3.1064767837524414,,,
1557947316831,,,,,-0.9193734526634216,-2.164358377456665,,999.7599487304688,106.55959124149899,63.40646775224729
1557947316864,,43.963732644311946,39.287109375,,,,,,,
1557947316889,,,,9.393250058817793,,,,,,
1557947316890,,,,,6.076483726501465,-0.5746083855628967,4.710591793060303,,146.59296238215535,68.73172790744161
1557947316894,8.0,,,,,,,,,
1557947316904,,51.14431365254731,,,,,,,,
1557947316928,,,,3.278460379464238,,,,,,
1557947316944,,49.78188235090844,,,,,,,,
1557947316952,,,121.2451171875,,,,,,,
1557947316976,,,,,6.521805286407471,-0.033518824726343155,8.65623664855957,,104.14210042628633,72.46329955113461
1557947316984,,36.24318092129745,121.2451171875,,,,,,,
1557947317006,,,,6.7892178604382805,,,,,,
1557947317024,,37.33668924503639,121.2451171875,,,,,,,
1557947317065,1.0,,,,12.373234748840332,-2.4612393379211426,6.592434406280518,999.7699584960938,88.98449680886984,74.25220405592205
1557947317066,,,,6.208683012602315,,,,,,
1557947317067,1.0,,,,,,,,,
1557947317084,,35.27539144891382,121.2451171875,,,-2.628833532333374,-3.051409959793091,,155.37778776808568,
1557947317085,,,,,16.845603942871094,,,,,73.90088414436322
1557947317103,,,,8.77171638978664,,,,,,
1557947317124,,34.84985373525059,,,,,,,,
1557947317151,,,,,,,-5.182249546051025,,,
1557947317152,,,,,17.37711524963379,-7.196970462799072,,,177.87610304502752,72.79216873994417
1557947317164,,36.96145844331288,,,,,,,,
1557947317172,,,85.361328125,,,,,,,
1557947317188,,,,10.13499466009992,,,,,,
1557947317204,,39.415823651265704,85.361328125,,,,,,,
1557947317238,0.0,,,6.494792025601016,13.441048622131348,-8.058882713317871,1.1288660764694214,999.7999877929688,116.15102781746197,71.45746986951463
1557947317239,0.0,,,,,,,,,
1557947317244,,38.42813936875458,85.361328125,,,,,,,
1557947317252,,,48.06640625,,,,,,,
1557947317284,,35.189960160139464,48.06640625,,,,,,,
1557947317293,,,,,,,2.876633405685425,,,
1557947317294,,,,,,,,,82.5874850662085,
1557947317295,,,,4.6927231235532165,11.118672370910645,-5.157110691070557,,,,70.251123383252
1557947317344,,33.00056039496136,48.06640625,,,,,,,
1557947317349,,,,,,-1.216254472732544,-0.4129997789859772,,48.82080907394425,
1557947317350,,,,,8.389283180236816,,,,,69.65070231371826
1557947317384,,33.638485879025936,,,,,,,,
1557947317408,0.0,,,3.3381946083786374,4.577713489532471,0.2968810200691223,-1.3754688501358032,999.8699951171875,44.81625550318739,69.86193767163635
1557947317424,,33.59618023850143,,,,,,,,
1557947317432,,,78.896484375,,,,,,,
1557947317445,,,,6.427541789598202,,,,,,
1557947317464,,33.12063582627854,78.896484375,,,,,,,
1557947317474,,,,,5.817910194396973,1.0630255937576294,-0.03950432687997818,,34.29877163427034,71.12559515464388
1557947317504,,34.114736190155355,78.896484375,,,,,,,
1557947317517,,,43.84765625,,,,,,,
1557947317527,,,,5.796181033153795,8.04930591583252,-2.9879636764526367,0.3866635859012604,,60.10150511090768,
1557947317528,,,,,,,,,,72.34480078100103
1557947317544,,39.16369768418604,43.84765625,,,,,,,
1557947317557,,,,1.8696143049385767,,,,,,
1557947317558,0.0,,,,,,,,,
1557947317593,,,,,,,2.3930046558380127,,,
1557947317594,,,,,10.002974510192871,-1.1875240802764893,,999.8299560546875,68.6460581022153,73.1187390951626
1557947317604,,37.307145800525944,43.84765625,,,,,,,
1557947317623,,,,2.123932065204191,,,,,,
1557947317644,,39.114020526121216,,,,,,,,
1557947317674,,,,,9.284713745117188,-1.8626888990402222,0.7649474143981934,,53.059754246448335,73.0532693370231
1557947317684,,37.08829010293695,,,,,,,,
1557947317724,,38.3900648085133,,,,,,,,
1557947317728,0.0,,,1.1002584543906626,6.818686485290527,1.2497732639312744,-0.6763619780540466,,22.372192418822976,72.2391868287426
1557947317734,,,102.05862862723214,,,,,,,
1557947317764,,37.96194441275566,102.05862862723214,4.151769072562294,,,,,,
1557947317794,,,,,4.520252704620361,-2.4181437492370605,-4.574122428894043,999.8399658203125,35.54248078023795,70.86219029462356
1557947317824,,38.029574209300996,102.05862862723214,,,,,,,
1557947317827,,,,5.9583051276261845,,,,,,
1557947317857,,,,,,,-4.004302501678467,,,
1557947317858,,,,,22.519861221313477,-6.646304130554199,,,74.63722683458366,70.49375918530612
1557947317859,0.0,,,,,,,,,
1557947317864,,40.28486696651696,,,,,,,,
1557947317904,,40.671671381714646,,14.148187829968554,,,,,,
1557947317912,,,,,12.607866287231445,-12.574347496032715,4.514267444610596,,103.59307616042236,71.16775905595617
1557947317915,,,570.0048828125,,,,,,,
1557947317934,,,,9.374156863128078,,,,,,
1557947317944,,44.287068087789336,570.0048828125,,,,,,,
1557947317980,,,,,7.043741226196289,-8.796297073364258,0.03711012750864029,999.8399658203125,105.56783411363477,
1557947317981,,,,,,,,,,70.79152752134212
1557947317984,,46.97612451693424,570.0048828125,,,,,,,
1557947317993,,,807.8857421875,,,,,,,
1557947318010,,,,2.136385987642636,,,,,,
1557947318013,0.0,,,,,,,,,
1557947318024,,39.069347740434104,807.8857421875,,,,,,,
1557947318061,,,,,13.4506254196167,0.9720458984375,-1.2318167686462402,,46.66673816445143,71.05392284207937
1557947318084,,41.32425801020769,807.8857421875,,,,,,,
1557947318093,,,,9.38100718997899,,,,,,
1557947318123,,,,,,,-1.0833762884140015,,262.6512808542892,
1557947318124,,38.90015541622202,,,-0.2106897532939911,-2.408566951751709,,,,70.22777317719289
1557947318128,,,,8.570464724890122,,,,,,
1557947318153,0.0,,,,,,,,,
1557947318164,,36.89288089388913,,,,,,,,
1557947318166,,,,,1.522712230682373,-3.44765043258667,-2.606088638305664,999.8099975585938,228.92922990296722,70.84588964541896
1557947318177,,,268.86555989583337,,,,,,,
1557947318189,,,,6.741473711582288,,,,,,
1557947318204,,38.72970873117731,268.86555989583337,,,,,,,
1557947318236,,,,,,,-0.8104372620582581,,,
1557947318237,,,,,15.27979564666748,-6.04775333404541,,,68.01604145317333,71.30056040946222
1557947318244,,40.11351571730644,268.86555989583337,,,,,,,
1557947318269,,,,8.855815515514323,,,,,,
1557947318299,,,,,,,0.48243165016174316,,,
1557947318301,0.0,,,,,,,,,
1557947318305,,43.12566530705985,,,,,,,,
1557947318330,,,,9.118715813555049,,,,,,
1557947318344,,45.80989949942101,,,,,,,,
1557947318352,,,43.06640625,,,,,,,
1557947318361,,,,,12.24394702911377,-6.133944988250732,-2.7114334106445313,999.8699951171875,78.47880526155484,70.50886667645982
1557947318384,,49.14685081184803,43.06640625,,,,,,,
1557947318410,,,,5.648104878151575,,,,,,
1557947318424,,50.063089876961406,43.06640625,,,,,,,
1557947318441,,,,,6.234501361846924,-3.8355112075805664,12.501323699951172,,57.61442149824177,43.49931066734203
1557947318442,0.0,,,,,,,,,
1557947318464,,46.64562423013824,43.06640625,,,,,,,
1557947318486,,,,12.55803058126863,,,,,,
1557947318487,,,,,5.856217384338379,-5.837063789367676,-0.5949591398239136,,98.9176204282519,41.33195062790807
1557947318504,,42.76993085299491,,,,,,,,
1557947318516,,,,1.5654537510822042,,,,,,
1557947318564,,39.015055444937296,,,,,,,,
1557947318565,,,,,,-11.683704376220703,-0.9493009448051453,,103.73235054778809,
1557947318566,,,,,15.203181266784668,,,999.8299560546875,,42.02642195620276
1557947318575,,,90.546875,,,,,,,
1557947318596,0.0,,,9.85008670362082,,,,,,
1557947318604,,43.415867544670334,90.546875,,,,,,,
1557947318640,,,,3.7617423273696478,1.656787633895874,-10.132261276245117,1.0857704877853394,,84.8179106604328,44.06540781628633
1557947318644,,37.48971691240254,90.546875,,,,,,,
1557947318655,,,81.61272321428572,,,,,,,
1557947318675,,,,,4.999093055725098,-7.110779285430908,-2.8359320163726807,,124.95179486491509,44.38941460629277
1557947318684,,38.75679782851506,81.61272321428572,,,,,,,
1557947318720,,,,2.59632837301213,,,,,,
1557947318724,,37.212824914903386,81.61272321428572,,,,,,,
1557947318749,,,,,,,-0.5183446407318115,,,
1557947318750,,,,,6.090848922729492,-7.441178798675537,,999.8699951171875,107.88897145022608,45.04897514303729
1557947318751,0.0,,,,,,,,,
1557947318764,,37.827319245225596,,,,,,,,
1557947318799,,,,2.11826648877814,,,,,,
1557947318824,,36.35084685325095,,,,,,,,
1557947318829,,,,3.1716355106536067,6.976703643798828,-10.481815338134766,0.13766659796237946,,74.53647471413683,45.89869448440361
1557947318837,,,69.03940836588541,,,,,,,
1557947318864,,38.267137217332014,69.03940836588541,,,,,,,
1557947318896,,,,4.732606664585047,2.7246015071868896,-4.405331134796143,-0.37469255924224854,,81.11169975262214,46.683403462872924
1557947318898,0.0,,,,,,,,,
1557947318904,,41.2487414746607,69.03940836588541,,,,,,,
1557947318915,,,38.115234375,,,,,,,
1557947318932,,,,,4.563348293304443,-7.216124057769775,-2.6635494232177734,999.8499755859375,84.70676982225837,46.01760665880367
1557947318944,,42.51133455257328,38.115234375,,,,,,,
1557947318965,,,,1.2664720032252226,,,,,,
1557947318984,,38.845276812342625,38.115234375,,,,,,,
1557947318993,,,55.4150390625,,,,,,,
1557947319007,,,,,-0.05746084079146385,-12.124237060546875,-2.9700071811676025,,188.8241895873499,46.01760665880367
1557947319044,,38.409509213343426,55.4150390625,,,,,,,
1557947319054,,,,3.6684954735295285,,,,,,
1557947319059,,,,,,,-2.7257986068725586,,130.77585618904993,
1557947319060,0.0,,,,3.098097085952759,-16.53435707092285,,,113.55935351803564,50.02689343424103
1557947319084,,43.00471817522934,55.4150390625,,,,,,,
1557947319086,,,,8.131883258482615,,,,,,
1557947319124,,40.71259601830504,55.4150390625,,,,,,,
1557947319149,,,,,,-8.518569946289063,-3.5254619121551514,,108.59501493491945,
1557947319150,,,,1.8657880830012705,2.9688100814819336,,,999.8399658203125,,52.28977062229748
1557947319164,,42.96947750733298,,,,,,,,
1557947319204,,47.560095002154384,,,,,,,,
1557947319212,,,131.6900634765625,,,,,,,
1557947319225,0.0,,,10.056492498969805,11.367670059204102,-7.733271598815918,1.7896658182144165,,56.86036861387237,53.86334629133203
1557947319244,,47.896675755926225,131.6900634765625,,,,,,,
1557947319254,,,,,-8.585607528686523,-11.113883972167969,5.495890140533447,,291.8358254041075,
1557947319255,,,,,,,,,,52.996134114616
1557947319300,,,,13.81162228104214,,,,,,
1557947319304,,44.24728740987969,131.6900634765625,,,,,,,
1557947319344,,42.5746031054872,,,,,,,,
1557947319351,,,,10.191502820307127,-2.1978771686553955,-3.2561142444610596,-6.360196590423584,999.8899536132813,302.1642393915148,51.12827019900219
1557947319384,,42.90318144172983,,,,,,,,
1557947319385,,,,,7.445967197418213,-7.51779317855835,-0.11133038252592087,,74.44378904709976,47.882147782800494
1557947319386,0.0,,,,,,,,,
1557947319395,,,162.9833984375,,,,,,,
1557947319414,,,,1.623084112628446,,,,,,
1557947319424,,49.04040128139467,162.9833984375,,,,,,,
1557947319457,,,,,8.710105895996094,-4.60165548324585,-3.468001127243042,,89.2476981485363,45.62554201781335
1557947319464,,46.37128981047721,162.9833984375,,,,,,,
1557947319487,,,,3.137098011542036,,,,,,
1557947319504,,48.715486249788995,,,,,,,,
1557947319530,,,,,4.414907932281494,-7.407660007476807,-1.2509703636169434,999.8999633789063,85.67968928839167,46.0671265463686
1557947319531,,,,2.4673067533965947,,,,,,
1557947319532,0.0,,,,,,,,,
1557947319564,,46.73794894230595,,,,,,,,
1557947319571,,,183.5009765625,,-2.5665841102600098,-7.139509677886963,-2.936488389968872,,248.99392828806606,44.89988869226333
1557947319604,,44.454454161371686,183.5009765625,,,,,,,
1557947319605,,,,7.669605051388703,,,,,,
1557947319644,,46.5885072814779,183.5009765625,,,,,,,
1557947319652,,,,,,-10.390835762023926,4.351461410522461,,42.820440076763816,
1557947319653,,,,,2.2601263523101807,,,,,45.97825806997185
1557947319684,,43.096075805982714,,,,,,,,
1557947319685,,,,5.638072950255896,,,,,,
1557947319686,0.0,,,,,,,,,
1557947319715,,,,,6.0190229415893555,-6.464344501495361,4.2509050369262695,999.9199829101563,36.16903793846535,
1557947319716,,,,,,,,,,46.23170121650772
1557947319724,,53.2703265989355,,,,,,,,
1557947319731,,,250.0537109375,,,,,,,
1557947319749,,,,2.071487956769603,,,,,,
1557947319780,,,,,1.7908629179000854,-4.874594688415527,-5.503072738647461,,162.67917802855925,46.2537585616962
1557947319785,,59.91864218013043,250.0537109375,,,,,,,
1557947319824,,58.16761757719418,250.0537109375,,,,,,,
1557947319826,,,,7.960414221639357,,,,,,
1557947319830,,,,,4.017470359802246,-8.671798706054688,3.9157168865203857,,53.226796767884764,45.9139417189833
1557947319856,,,,4.644263283047241,,,,,,
1557947319857,0.0,,,,,,,,,
1557947319864,,52.918447706278926,250.0537109375,,,,,,,
1557947319904,,52.83515354339371,,,,,,,,
1557947319907,,,,,-2.561795711517334,-2.360682964324951,-1.159990668296814,999.949951171875,53.98752957726248,
1557947319908,,,,,,,,,,44.843839773480354
1557947319937,,,,9.342279733169681,,,,,,
1557947319944,,57.798976504314545,,,,,,,,
1557947319952,,,86.3671875,,,,,,,
1557947319971,,,,,-3.869029998779297,-4.572925090789795,5.902904510498047,,342.8637844951319,
1557947319972,,,,,,,,,,46.07667584075282
1557947319984,,48.763984402309845,86.3671875,,,,,,,
1557947320001,,,,8.918005536772572,,,,,,
1557947320002,0.0,,,,,,,,,
1557947320037,,,,,14.312538146972656,-9.500192642211914,-10.976217269897461,,83.78912024688884,46.82499454251823
1557947320041,,,,19.207606017050903,,,,,,
1557947320044,,60.3906348359519,86.3671875,,,,,,,
1557947320084,,60.46339808842187,,,,,,,,
1557947320112,,,,,,-13.737929344177246,-2.141613483428955,999.9599609375,78.71119561787532,
1557947320113,,,,5.40564561232828,3.821146011352539,,,,,48.62314469041432
1557947320124,,61.66560972706009,,,,,,,,
1557947320132,,,118.2763671875,,,,,,,
1557947320161,,,,,2.82515811920166,-18.555063247680664,2.761711597442627,,41.0612394786624,50.79508076338911
1557947320163,0.0,,,,,,,,,
1557947320164,,57.276538710380805,118.2763671875,,,,,,,
1557947320204,,55.8691149459322,118.2763671875,,,,,,,
1557947320209,,,,10.042406954458919,,-15.758635520935059,-4.1862616539001465,,94.06657419289871,
1557947320210,,,,,6.114790916442871,,,,,52.12648223379545
1557947320212,,,126.30859375,,,,,,,
1557947320239,,,,7.667583189650755,,,,,,
1557947320244,,47.89279900796086,126.30859375,,,,,,,
1557947320279,,,,,-4.338293552398682,-9.078812599182129,-1.8638859987258911,999.9099731445313,101.73016255486891,52.75803504095905
1557947320304,,47.37969180728633,126.30859375,,,,,,,
1557947320308,,,,8.119399267816236,,,,,,
1557947320309,0.0,,,,,,,,,
1557947320316,,,69.15690104166666,,,,,,,
1557947320344,,52.74641270537139,69.15690104166666,,,,,,,
1557947320364,,,,7.883273184011195,-3.471592426300049,-3.6583402156829834,-0.02992752194404602,,275.1086101644762,51.85711376127823
1557947320384,,49.383653117944945,69.15690104166666,,,,,,,
1557947320390,,,0.0,,,,,,,
1557947320400,,,,,,,-5.292382717132568,,131.05478745437492,
1557947320401,,,,,2.1930887699127197,-6.502651691436768,,,140.97991292223887,51.1042094988423
1557947320424,,51.0416544494005,,,,,,,,
1557947320430,,,,5.287286502504882,,,,,,
1557947320436,0.0,,,,,,,,,
1557947320464,,46.1709440949388,,,,,,,,
1557947320468,,,,,,,-5.5557451248168945,,,
1557947320469,,,,,11.252747535705566,-6.617573261260986,,999.9400024414063,135.71894605365821,51.41216025876709
1557947320517,,,,7.415980903839578,,,,,,
1557947320524,,44.5382363968412,,,,,,,,
1557947320530,,,475.29296875,,,,,,,
1557947320531,,,475.29296875,,,,,,,
1557947320548,,,,,7.086836814880371,-9.648633003234863,-3.793612480163574,,96.4815514984968,52.404770058905505
1557947320564,,39.72716248329278,475.29296875,,,,,,,
1557947320588,,,,2.815016066131006,,,,,,
1557947320589,0.0,,,,,,,,,
1557947320590,,,,,,,-1.523909330368042,,,
1557947320591,,,,,1.3072341680526733,-7.12035608291626,,,116.15919672370927,51.85065121660184
1557947320604,,43.86841977690481,475.29296875,,,,,,,
1557947320618,,,,3.1156312504345056,,,,,,
1557947320644,,47.228472474563354,,,,,,,,
1557947320679,,,,7.184991813554128,4.989516258239746,-15.844826698303223,1.3204022645950317,999.9400024414063,55.333035862619965,50.90235806756884
1557947320684,,50.802705235041905,,,,,,,,
1557947320692,,,217.67578125,,,,,,,
1557947320724,,46.80504239136765,217.67578125,,,,,,,
1557947320738,,,,,,,2.2206220626831055,,,
1557947320739,,,,,-2.561795711517334,-10.668562889099121,,,303.3109940022141,51.7348057888003
1557947320772,,,,3.993023032825359,,,,,,
1557947320773,0.0,,,,,,,,,
1557947320784,,57.90368943434794,217.67578125,,,,,,,
1557947320791,,,,,-0.8906430602073669,-16.266206741333008,2.4791958332061768,,328.11830595449754,52.1107485741533
1557947320823,,,,6.8311378239446,,,,,,
1557947320824,,55.882986398535365,,,,,,,,
1557947320866,,50.97970758362238,,,,,,,,
1557947320878,,,106.78059895833334,,,,,,,
1557947320889,,,,,,,-0.20231004059314728,,324.0052479985859,
1557947320890,,,,3.379232648839513,0.8954314589500427,-11.654973983764648,,999.9400024414063,82.28066613850234,51.015881302895146
1557947320904,,55.14530883854669,106.78059895833334,,,,,,,
1557947320909,0.0,,,,,,,,,
1557947320915,,,,,-0.3447650372982025,-11.03248119354248,2.8191723823547363,,336.61805631994446,51.36048986085461
1557947320944,,69.28689167765256,106.78059895833334,,,,,,,
1557947320954,,,79.833984375,,,,,,,
1557947320956,,,,1.6831222546622704,,,,,,
1557947320979,,,,,4.692635536193848,-10.146626472473145,5.524620532989502,,13.902479517798497,52.32571191353546
1557947320984,,77.46184769161646,79.833984375,,,,,,,
1557947321018,,,,5.2224053470256955,,,,,,
1557947321044,,55.04848207775698,79.833984375,,,,,,,
1557947321048,,,,,,-13.675680160522461,5.3761796951293945,,354.3805519334917,
1557947321049,0.0,,,,4.932055473327637,,,999.989990234375,,52.77603604136889
1557947321084,,77.52355097031376,,,,,,,,
1557947321103,,,,5.9458046106697555,0.3208230137825012,-7.728483200073242,-2.117671489715576,,115.76053224223398,53.012640936910856
1557947321124,,52.5283718440121,,,,,,,,
1557947321133,,,,4.075912869481448,,,,,,
1557947321134,,,263.3984375,,,,,,,
1557947321164,,51.44337814055702,263.3984375,,,,,,,
1557947321182,,,,,,,0.3292027413845062,,,
1557947321183,,,,,-15.816096305847168,-3.6296098232269287,,,301.55972666883366,53.36140935108978
1557947321204,,52.38008260226195,263.3984375,,,,,,,
1557947321212,,,,16.98756582262818,,,,,,
1557947321213,0.0,,,,,,,,,
1557947321260,,,,,,,-3.70742130279541,,,
1557947321261,,,,11.550941752562592,4.654327869415283,-19.603723526000977,,999.9400024414063,59.25188421967147,51.04282605523841
1557947321264,,56.146798392631695,263.3984375,,,,,,,
1557947321271,,,170.078125,,,,,,,
1557947321299,,,,,6.445190906524658,-13.771448135375977,-0.9397241473197937,,28.522969011716214,
1557947321300,,,,,,,,,,51.93207204721087
1557947321304,,55.222108047479466,170.078125,,,,,,,
1557947321336,,,,6.9821252122293,,,,,,
1557947321344,,50.866133917370576,170.078125,,,,,,,
1557947321375,0.0,,,,-3.4189200401306152,-14.877569198608398,2.2637176513671875,,252.60915424594293,57.260372518219775
1557947321384,,49.32693797233686,,,,,,,,
1557947321408,,,,8.18772736444804,,,,,,
1557947321424,,46.510221160679464,,,,,,,,
1557947321432,,,55.3173828125,,,,,,,
1557947321438,,,,,-3.3423056602478027,-14.322114944458008,2.5462334156036377,999.949951171875,246.1897668035606,59.135354013800104
1557947321464,,51.400805286468156,55.3173828125,,,,,,,
1557947321484,,,,8.680705315548423,-5.999869346618652,-8.633491516113281,1.9141643047332764,,239.11722203122832,57.317536135918495
1557947321514,,,,8.411179469222885,,,,,,
1557947321516,0.0,,,,,,,,,
1557947321524,,50.61385125861521,55.3173828125,,,,,,,
1557947321534,,,64.599609375,,,,,,,
1557947321560,,,,,2.2218191623687744,-5.20978307723999,-0.4225766062736511,,44.69179579613143,55.611690125899436
1557947321564,,48.90736564125668,64.599609375,,,,,,,
1557947321604,,48.09686505625223,64.599609375,,,,,,,
1557947321609,,,,4.367917240434749,,,0.7984662652015686,,,
1557947321611,,,,,,,,,15.935107956301124,
1557947321619,,,81.87235966435185,,,,,,,
1557947321644,,57.082784580047736,81.87235966435185,,,,,,,
1557947321655,,,,2.9081560672926337,,,,,,
1557947321684,,45.55580338493683,81.87235966435185,,,,,,,
1557947321685,0.0,,,,2.0015525817871094,-8.154650688171387,-0.1975216418504715,,45.674270696913595,50.63496896430364
1557947321694,,,45.99609375,,,,,,,
1557947321721,,,,2.401353784052925,,,,,,
1557947321724,,39.97570851192031,45.99609375,,,,,,,
1557947321752,,,,,4.189853191375732,-9.428366661071777,-0.6141127347946167,,38.86064132054349,47.890083803687865
1557947321784,,36.75895384221759,45.99609375,,,,,,,
1557947321802,,,,1.5717279687753891,0.2537853717803955,-6.842628479003906,0.7410054206848145,999.9400024414063,328.65711225736317,46.64986580750687
1557947321824,,37.925556134807515,,,,,,,,
1557947321831,,,,3.6777201129071577,,,,,,
1557947321834,0.0,,,,,,,,,
1557947321864,,39.24295927235476,,,,,,,,
1557947321881,,,,,6.205770969390869,-10.668562889099121,0.013168109580874443,,22.855930321505355,45.79115698079791
1557947321904,,39.64798455385137,,,,,,,,
1557947321912,,,486.7626953125,,,,,,,
1557947321931,,,,3.4418253648821566,-0.9193734526634216,-8.724471092224121,1.6077064275741577,,278.8872552284348,45.83830248419179
1557947321944,,41.00896040779062,486.7626953125,,,,,,,
1557947321966,,,,3.5361748845363796,,,,,,
1557947321971,0.0,,,,,,,,,
1557947322000,,,,,,,5.543774127960205,,,
1557947322001,,,,,0.4836287498474121,-12.765883445739746,,999.9199829101563,310.60595363958413,45.839067666257364
1557947322004,,43.2098184069467,486.7626953125,,,,,,,
1557947322044,,45.23849637420405,,,,,,,,
1557947322054,,,,5.536813470378221,,,,,,
1557947322057,,,,,,,-2.098517894744873,,,
1557947322058,,,,,,,,,122.49317265052062,
1557947322059,,,,,-5.056553840637207,-7.326257228851318,,,,44.9084624355224
1557947322084,,45.99362904236594,,,,,,,,
1557947322085,,,,5.163921590893825,,,,,,
1557947322094,,,292.8857421875,,,,,,,
1557947322124,,44.43148163013042,292.8857421875,,,,,,,
1557947322135,0.0,,,,-4.050989151000977,-10.721235275268555,4.078522682189941,,257.3095879799082,46.52848650512415
1557947322164,,43.80305696144134,292.8857421875,,,,,,,
1557947322165,,,,2.9553316137456704,,,,,,
1557947322204,,41.53624977736041,,,,,,,,
1557947322221,,,,4.267306153733569,-0.3878606855869293,-12.871228218078613,0.152031809091568,999.8899536132813,238.70713747346076,47.44797129741026
1557947322264,,46.079568749685286,,,,,,,,
1557947322273,,,225.6298828125,,,,,,,
1557947322276,,,,,,,1.2868833541870117,,,
1557947322277,,,,1.0316771576265316,-1.824381709098816,-9.57201862335205,,,214.21358733617478,47.72106586325151
1557947322281,0.0,,,,,,,,,
1557947322304,,46.16907837166696,225.6298828125,,,,,,,
1557947322325,,,,,-1.6519991159439087,-7.987056732177734,2.182314872741699,,234.3837916533828,47.61890341356877
1557947322344,,43.523952401428986,225.6298828125,,,,,,,
1557947322355,,,,1.923162013885682,,,,,,
1557947322384,,38.885169873816025,,,,,,,,
1557947322403,,,,1.5906119775145338,-1.3838485479354858,-8.580819129943848,2.0626046657562256,999.97998046875,228.26525355337196,46.1583143694379
1557947322424,,35.49852961960281,,,,,,,,
1557947322433,0.0,,,,,,,,,
1557947322434,,,,,,,2.12485408782959,,,
1557947322435,,,,,1.1109095811843872,-10.457873344421387,,,289.75291823557706,
1557947322437,,,77.021484375,,,,,,,44.1039678557535
1557947322438,,,77.021484375,,,,,,,
1557947322464,,39.09375119101824,77.021484375,,,,,,,
1557947322480,,,,1.2736881220109555,,,,,,
1557947322524,,37.78148159040392,77.021484375,,,,,,,
1557947322525,,,,,,,1.3491326570510864,,,
1557947322526,,,,1.0621884394094696,0.6703764796257019,-10.18493366241455,,,282.6807422934599,42.58227330709341
1557947322564,,36.997300328399064,,,,,,,,
1557947322580,,,,,1.8914192914962769,-9.026140213012695,2.895787000656128,999.9599609375,274.04566197489294,41.868007838175515
1557947322604,,38.2826313570825,,,,,,,,
1557947322610,0.0,,,1.3899704324884536,,,,,,
1557947322642,,,,,4.218583583831787,-11.44907283782959,1.622071623802185,,318.789609680432,41.80849167067227
1557947322644,,38.50827855110199,,,,,,,,
1557947322654,,,140.15462239583331,,,,,,,
1557947322655,,,140.15462239583331,,,,,,,
1557947322672,,,,2.82924448691877,,,,,,
1557947322684,,42.249176261858125,140.15462239583331,,,,,,,
1557947322709,,,,,4.687847137451172,-11.018115997314453,-4.492719650268555,,13.572325248792993,42.154714972711446
1557947322711,,,,4.591667274064279,,,,,,
1557947322744,,43.613006681124496,140.15462239583331,,,,,,,
1557947322768,,,,,1.0103530883789063,-11.238382339477539,1.8519150018692017,999.97998046875,10.266276341433183,39.963734127267166
1557947322769,0.0,,,,,,,,,
1557947322784,,36.97471866942625,,,,,,,,
1557947322801,,,,4.647012238826441,,,,,,
1557947322824,,38.85338511576126,,,,,,,,
1557947322832,,,74.0380859375,,,,,,,
1557947322833,,,,,0.12449848651885986,-11.994950294494629,-0.09696517139673233,,6.972316015130616,38.37160369456525
1557947322864,,38.931649541383756,74.0380859375,,,,,,,
1557947322869,,,,5.494485518136233,,,,,,
1557947322900,,,,,2.604891538619995,-9.366117477416992,0.0802057534456253,,336.62874044335365,36.21574296450678
1557947322902,0.0,,,,,,,,,
1557947322907,,41.05179210735972,74.0380859375,,,,,,,
1557947322914,,,44.1357421875,,,,,,,
1557947322938,,,,2.257247695764508,,,,,,
1557947322942,,,,,1.5849615335464478,-7.225700855255127,-0.5805938839912415,999.97998046875,348.32063606646665,34.11597972188227
1557947322944,,38.7774824401503,44.1357421875,,,,,,,
1557947322968,,,,3.2566259771152377,,,,,,
1557947323004,,35.13205735073872,44.1357421875,,,,,,,
1557947323017,,,,,0.24899697303771973,-8.250418663024902,-0.13527239859104156,,10.95866627797568,32.93114154889765
1557947323044,,36.029532211318376,,,,,,,,
1557947323047,0.0,,,4.018048812896303,,,,,,
1557947323084,,39.00329114844794,,,,,,,,
1557947323096,,,90.03255208333334,,,,,,,
1557947323097,,,,4.484334805936483,0.871489405632019,-5.717353820800781,-1.413776159286499,,24.025198943256328,31.241958945321432
1557947323124,,35.4994510274286,90.03255208333334,,,,,,,
1557947323132,,,,,,,-0.628477931022644,,,
1557947323133,,,,,5.856217384338379,-8.734047889709473,,999.989990234375,12.459771956588895,30.551432461252848
1557947323164,,34.80163303961414,90.03255208333334,,,,,,,
1557947323173,,,117.8076171875,,,,,,,
1557947323181,,,,2.148432506208685,,,,,,
1557947323204,,35.22778099444645,117.8076171875,,,,,,,
1557947323211,0.0,,,,2.9065608978271484,-7.158663272857666,-0.0011971008498221636,,351.6615898018062,29.984497184246074
1557947323245,,,,2.093426693679017,,,,,,
1557947323264,,35.14698592330249,117.8076171875,,,,,,,
1557947323276,,,,,,,-0.7577648162841797,,349.2785393617097,
1557947323277,,,,,2.7724854946136475,-7.881711959838867,,,348.12233433052,30.431728042291915
1557947323306,,34.35320020005943,117.8076171875,,,,,,,
1557947323315,,,,1.5429197665780978,,,,,,
1557947323339,,,,,,-8.322244644165039,-0.6332663297653198,,345.5404451308534,
1557947323340,0.0,,,,3.1028854846954346,,,999.9099731445313,,30.455214210900525
1557947323344,,32.96502596421968,,,,,,,,
1557947323375,,,,1.0889902909146434,,,,,,
1557947323384,,36.476360921383545,,,,,,,,
1557947323395,,,98.798828125,,,,,,,
1557947323406,,,,,1.5083470344543457,-8.35097599029541,-0.07781155407428741,,332.9002443358285,30.372027006611805
1557947323424,,35.24559398142446,98.798828125,,,,,,,
1557947323454,,,,1.6422359731617837,5.899312973022461,-9.950302124023438,2.800018787384033,,329.92414649934636,30.61257913313671
1557947323484,,34.25752633977475,98.798828125,,,,,,,
1557947323485,,,,3.5041416731285917,,,,,,
1557947323488,0.0,,,,,,,,,
1557947323515,,,138.18577357700894,,,,,,,
1557947323524,,36.5080931528075,138.18577357700894,,,,,,,
1557947323552,,,,4.220257073115759,4.23773717880249,-13.19205093383789,-0.2885012924671173,1000.0099487304688,321.52083840498005,31.61977204003582
1557947323564,,36.39588939387595,138.18577357700894,,,,,,,
1557947323588,,,,,1.556231141090393,-12.914323806762695,4.322731018066406,,279.39403477428226,31.651541047748815
1557947323604,,37.11806218848564,,,,,,,,
1557947323618,,,,4.776813917496952,,,,,,
1557947323620,0.0,,,,,,,,,
1557947323644,,33.536582178478554,,,,,,,,
1557947323652,,,616.4306640625,,,,,,,
1557947323673,,,,,0.7565677165985107,-10.041281700134277,3.02986216545105,,265.6552253720175,31.91582772655492
1557947323674,,,,2.2781431388394497,,,,,,
1557947323684,,32.63417831079781,616.4306640625,,,,,,,
1557947323741,,,,1.8402618775390593,3.5625722408294678,-8.925583839416504,0.37229835987091064,999.9599609375,322.5138078914219,31.663702617325363
1557947323744,,32.85082860751793,616.4306640625,,,,,,,
1557947323759,0.0,,,,,,,,,
1557947323768,,,,,,,0.7170634269714355,,,
1557947323769,,,,,3.557783842086792,-7.364564418792725,,,320.50884001151053,31.691324957356976
1557947323784,,32.29643052867487,,,,,,,,
1557947323808,,,,2.5586969951735887,,,,,,
1557947323824,,33.01073422940844,,,,,,,,
1557947323835,,,152.50313895089286,,,,,,,
1557947323841,,,,,,,0.4297592043876648,,,
1557947323842,,,,,3.687070608139038,-7.948749542236328,,,320.942263325672,32.44903822533056
1557947323864,,34.32971377539528,152.50313895089286,,,,,,,
1557947323876,,,,1.804935520848536,,,,,,
1557947323904,,36.568425593470984,152.50313895089286,,,,,,,
1557947323907,0.0,,,,1.8483237028121948,-7.723694801330566,0.8942343592643738,999.97998046875,319.3071296987493,33.23101072514036
1557947323920,,,99.00390625,,,,,,,
1557947323943,,,,1.915675764049096,,,,,,
1557947323944,,36.48649240982544,99.00390625,,,,,,,
1557947323974,,,,,1.6903064250946045,-8.609549522399902,2.0434510707855225,,279.1695332864531,33.392664752612916
1557947324004,,48.528044559358634,99.00390625,,,,,,,
1557947324021,,,,1.8400346207471465,,,,,,
1557947324022,,,,,,,-0.09696517139673233,,,
1557947324023,,,,,5.693411827087402,-8.614337921142578,,,329.06937906057055,33.604910039340034
1557947324044,,42.34252201164474,99.00390625,,,,,,,
1557947324051,,,,1.4734015969102205,,,,,,
1557947324053,0.0,,,,,,,,,
1557947324084,,41.96584598233243,,,,,,,,
1557947324100,,,,,9.495404243469238,-11.745953559875488,-0.6236895322799683,999.9599609375,334.8187078699017,33.41017776907812
1557947324124,,39.255485647982155,,,,,,,,
1557947324132,,,,5.43034716653743,,,,,,
1557947324135,,,199.3508765811012,,,,,,,
1557947324164,,38.229284710553515,199.3508765811012,,,,,,,
1557947324166,,,,,,,-1.6053122282028198,,,
1557947324167,,,,,4.4292731285095215,-12.526463508605957,,,340.5388034695852,33.452952883837554
1557947324198,0.0,,,4.809493079170493,,,,,,
1557947324224,,37.97123466408308,199.3508765811012,,,,,,,
1557947324236,,,,,,-14.719552040100098,-0.9636662006378174,,335.0270081490196,
1557947324237,,,259.31648763020837,,3.6391866207122803,,,,,32.29380821664273
1557947324241,,,,6.544295574424316,,,,,,
1557947324264,,39.3063102189698,259.31648763020837,,,,,,,
1557947324304,,38.90444365460915,259.31648763020837,,,,,,,
1557947324325,,,,,,,-2.122459888458252,,,
1557947324326,,,,2.0611909121990575,4.759673118591309,-10.1753568649292,,1000.0700073242188,329.355581062267,31.100322646279718
1557947324344,,34.99613491414167,,,,,-0.27413609623908997,,328.6745121642738,
1557947324345,0.0,,,,1.5945383310317993,-5.272032260894775,,,,30.250620937279773
1557947324380,,,,4.741860090890707,,,,,,
1557947324384,,33.50271243097001,,,,,,,,
1557947324396,,,132.96468098958331,,,,,,,
1557947324417,,,,,0.9385270476341248,-5.310339450836182,-0.06823474913835526,,309.98621301014845,29.981495468760237
1557947324424,,32.733350679558406,132.96468098958331,,,,,,,
1557947324456,,,,4.960386326726576,,,,,,
1557947324476,,,,,,,-0.3124433159828186,,,
1557947324477,,,,,1.7334020137786865,-5.880159378051758,,999.9599609375,291.3938097119701,30.108803886852844
1557947324479,0.0,,,,,,,,,
1557947324484,,32.24132551875252,132.96468098958331,,,,,,,
1557947324493,,,154.09519740513394,,,,,,,
1557947324494,,,154.09519740513394,,,,,,,
1557947324524,,31.36361643824179,154.09519740513394,,,,,,,
1557947324530,,,,3.7595732245819673,3.7684733867645264,-8.097189903259277,0.2861070930957794,,327.02145612096894,
1557947324531,,,,,,,,,,30.721653209572892
1557947324555,,,,1.2782876263338085,,,,,,
1557947324564,,32.77788104299563,154.09519740513394,,,,,,,
1557947324577,,,129.140625,,,,,,,
1557947324604,,35.70478968185423,129.140625,,,,,,,
1557947324612,,,,,7.249642848968506,-8.101978302001953,-3.4296939373016357,,341.8293062415566,31.112376697219517
1557947324614,0.0,,,,,,,,,
1557947324644,,36.60137290272205,129.140625,,,,,,,
1557947324673,,,,4.882425961262691,,-8.365341186523438,-2.098517894744873,999.9099731445313,343.2299475214417,
1557947324674,,,,,6.200982570648193,,,,,32.995000421206406
1557947324685,,,,2.774248719113946,,,,,,
1557947324704,,40.736326359184254,129.140625,,,,,,,
1557947324727,,,94.9072265625,,,,,,,
1557947324743,,,,,-0.646434485912323,-10.730812072753906,1.3204022645950317,,171.88490699190245,34.59176296823274
1557947324744,,44.87438970841499,94.9072265625,3.97163298415035,,,,,,
1557947324746,0.0,,,,,,,,,
1557947324784,,47.357736043824815,94.9072265625,,,,,,,
1557947324795,,,53.6474609375,,,,,,,
1557947324824,,43.925458433376754,53.6474609375,,,,,,,
1557947324829,,,,3.6722669027062715,2.4229321479797363,-12.42111873626709,3.154360771179199,,280.136811016332,36.01860726556758
1557947324849,,,,,,-14.001291275024414,1.1815385818481445,,271.2043101103568,
1557947324850,,,,,1.9393033981323242,,,999.97998046875,,37.00459524641767
1557947324864,,45.931356270341084,53.6474609375,,,,,,,
1557947324871,,,66.2548828125,,,,,,,
1557947324887,0.0,,,4.455654991627936,,,,,,
1557947324904,,39.62634817849637,,,,,,,,
1557947324913,,,,,,,3.1208419799804688,,,
1557947324914,,,,,-1.1013327836990356,-11.176133155822754,,,192.79263877815401,
1557947324915,,,,,,,,,,38.01973185966931
1557947324950,,,,3.09045265264922,,,,,,
1557947324964,,40.84353339484353,66.2548828125,,,,,,,
1557947324972,,,99.2626953125,,,,,,,
1557947325004,,37.65387524176858,99.2626953125,,,,,,,
1557947325013,,,,0.8016948419670266,0.5171475410461426,-9.5624418258667,0.7170634269714355,,247.68995638305137,39.12007123864598
1557947325031,0.0,,,,,,,,,
1557947325044,,37.82633394445286,99.2626953125,,,,,,,
1557947325051,,,54.39453125,,,,,,,
1557947325084,,38.86954735185861,54.39453125,,,,,,,
1557947325091,,,,1.591095302880346,1.53707754611969,-8.307879447937012,2.167949676513672,999.989990234375,264.32720437093525,39.6552661717801
1557947325110,,,,,3.797203779220581,-8.125920295715332,-0.6332663297653198,,321.91626879188334,40.1644136212177
1557947325124,,42.98358484835443,54.39453125,,,,,,,
1557947325133,,,58.1689453125,,,,,,,
1557947325159,,,,2.6786766703684526,,,,,,
1557947325164,,39.241120849725256,58.1689453125,,,,,,,
1557947325170,,,,,,,0.5877765417098999,,304.19811604708826,
1557947325171,,,,,2.073378562927246,-5.085284233093262,,,,40.041105016023685
1557947325191,0.0,,,4.31866302181827,,,,,,
1557947325224,,38.69922165888973,58.1689453125,,,,,,,
1557947325239,,,,,,,0.812831461429596,,,
1557947325240,,,,,3.44765043258667,-6.742072105407715,,1000.0299682617188,310.50074140560923,39.74820899623285
1557947325258,,,,2.4085998950821708,,,,,,
1557947325264,,39.926018836006946,,,,,,,,
1557947325304,,42.1246576296338,,,,,,,,
1557947325312,,,41.77734375,,,,,,,
1557947325325,,,,2.5619536957260154,7.4316020011901855,-8.863334655761719,0.8846575021743774,,315.69895249609584,38.30587456323616
1557947325341,0.0,,,,,,,,,
1557947325345,,44.39406591632221,41.77734375,,,,,,,
1557947325384,,39.44766967935862,41.77734375,,,,,,,
1557947325385,,,,4.827121469837931,3.332728862762451,-12.397176742553711,-0.8966285586357117,,318.92956708671477,37.3555889712574
1557947325444,,37.809956298466695,41.77734375,,,,,,,
1557947325452,,,53.8330078125,,,,,,,
1557947325465,,,,9.355797798884565,0.6607996821403503,-17.166425704956055,-2.36188006401062,1000.0499877929688,318.61308002623844,36.85837882707036
1557947325483,,,,,,,-1.4281413555145264,,,
1557947325484,0.0,,,,4.395754337310791,-9.524134635925293,,,326.2465574992526,35.196875899331054
1557947325492,,37.929538944080576,53.8330078125,,,,,,,
1557947325522,,,,1.1800530985022364,,,,,,
1557947325524,,45.909123220672555,53.8330078125,,,,,,,
1557947325533,,,73.7109375,,,,,,,
1557947325557,,,,,2.513911724090576,-6.162675380706787,-0.020350715145468712,,305.7396043653955,
1557947325558,,,,,,,,,,34.84637811412731
1557947325564,,38.130066433783995,73.7109375,,,,,,,
1557947325593,,,,3.5325504035350472,,,,,,
1557947325604,,41.0743981487078,73.7109375,,,,,,,
1557947325612,,,,,-0.2106897532939911,-4.793191909790039,-0.1496376097202301,1000.0299682617188,34.75302019521121,35.046684141213376
1557947325613,0.0,,83.994140625,,,,,,,
1557947325644,,37.76563326870848,83.994140625,,,,,,,
1557947325658,,,,5.8769401430979915,,,,,,
1557947325679,,,,,0.28730419278144836,-5.693411827087402,0.23343466222286224,,213.88931727513926,35.44770925838758
1557947325704,,33.78650238579673,83.994140625,,,,,,,
1557947325710,,,0.0,,,,,,,
1557947325740,,,,4.55204306205668,5.60722017288208,-8.327033042907715,-0.3076549172401428,,309.5530560733646,36.17029318410414
1557947325744,,32.8143488503061,,,,,,,,
1557947325767,,,,3.168576634948337,,,,,,
1557947325768,0.0,,,,,,,,,
1557947325784,,35.95524179551496,,,,,,,,
1557947325794,,,65.576171875,,,,,,,
1557947325824,,34.93071059688085,65.576171875,,,,,,,
1557947325830,,,,,,,-3.0322563648223877,,312.0989441996897,
1557947325831,,,,5.690510382799424,8.465897560119629,-6.9240312576293945,,999.989990234375,,36.855529747844265
1557947325864,,36.424003667960235,65.576171875,,,,,,,
1557947325869,,,,,5.784391403198242,-10.898406028747559,-2.079364061355591,,316.7085193422208,38.69586699333605
1557947325904,,36.943741443619956,,,,,,,,
1557947325907,,,,3.170580670336173,,,,,,
1557947325908,0.0,,,,,,,,,
1557947325927,,,,,0.23942017555236816,-12.22000503540039,2.0242974758148193,,200.34945079282943,39.98762351300507
1557947325963,,,,4.475926112665404,,,,,,
1557947325964,,42.69661465724778,,,,,,,,
1557947325974,,,93.10546875,,,,,,,
1557947326004,,48.24858971807869,93.10546875,,,,,,,
1557947326027,,,,,10.836156845092773,-15.342044830322266,-0.5279214978218079,999.949951171875,203.56686604287734,40.58398747848441
1557947326028,,,,9.350871864508937,,,,,,
1557947326044,,44.12618496472045,93.10546875,,,,,,,
1557947326047,0.0,,,,,,,,,
1557947326054,,,,,0.22505496442317963,-12.00452709197998,3.1735143661499023,,203.63841910462236,40.76702151028423
1557947326084,,37.19078125131441,93.10546875,,,,,,,
1557947326092,,,70.3662109375,,,,,,,
1557947326117,,,,5.0156770982740095,,,,,,
1557947326118,,,,,3.00711727142334,-8.485051155090332,0.4967968463897705,,288.8791799463815,39.73285847783894
1557947326124,,38.56917104271127,70.3662109375,,,,,,,
1557947326151,,,,0.9891342281709882,,,,,,
1557947326184,,33.116087409679814,70.3662109375,,,,,,,
1557947326191,,,,,4.132391929626465,-5.841852188110352,-1.8303672075271606,1000.0199584960938,284.7785324441918,39.525941414211026
1557947326192,0.0,,,,,,,,,
1557947326193,,,39.736328125,,,,,,,
1557947326194,,,39.736328125,,,,,,,
1557947326224,,34.100096004463325,39.736328125,,,,,,,
1557947326243,,,,4.240530572119608,,,,,,
1557947326244,,,,,,,0.13766659796237946,,293.21989493751886,
1557947326245,,,,,3.0166940689086914,-6.981492042541504,,,,39.6276427251142
1557947326264,,36.395206247018194,39.736328125,,,,,,,
1557947326300,,,,2.217852881221042,,,,,,
1557947326304,,45.63285228020629,,,,,,,,
1557947326318,,,,,,,0.9469067454338074,,292.5164605850884,
1557947326319,0.0,,,,4.63517427444458,-7.220912456512451,,,,40.09214445685911
1557947326344,,45.97581319494856,,,,,,,,
1557947326356,,,245.33757285466268,,,,,,,
1557947326360,,,,2.0953838748708664,,,,,,
1557947326384,,44.24173553928456,245.33757285466268,,,,,,,
1557947326389,,,,,4.8602294921875,-6.066906929016113,1.535880446434021,1000.0199584960938,295.08323884499003,40.070563551364934
1557947326427,,,,3.0589070945216754,,,,,,
1557947326436,,,,,10.51054573059082,-16.58224105834961,-1.6962919235229492,,308.5972564763859,39.71460660726886
1557947326444,,46.8967382338418,245.33757285466268,,,,,,,
1557947326456,,,293.7255859375,,,,,,,
1557947326458,0.0,,,,,,,,,
1557947326461,,,,9.907140649655217,,,,,,
1557947326484,,46.10300957671,293.7255859375,,,,,,,
1557947326513,,,,,,,-1.9357120990753174,,333.7048030540156,
1557947326514,,,,,1.4987702369689941,-16.438589096069336,,,,38.681908695038445
1557947326524,,44.63940090966218,293.7255859375,,,,,,,
1557947326539,,,188.0562744140625,,,,,,,
1557947326544,,,,8.784176159063355,,,,,,
1557947326564,,44.17999069037297,188.0562744140625,,,,,,,
1557947326598,,,,2.6045347538528065,2.6862943172454834,-8.667010307312012,-1.116895079612732,1000.0899658203125,328.37409312381993,36.17194992324617
1557947326604,,42.88213757393282,188.0562744140625,,,,,,,
1557947326617,,,183.05826822916669,,,,,,,
1557947326629,0.0,,,,4.185064792633057,-7.666234016418457,-0.06823474913835526,,302.3686601231841,33.859268488274175
1557947326644,,46.704023682700075,183.05826822916669,,,,,,,
1557947326667,,,,1.4771814411475663,,,,,,
1557947326699,,,,,-0.35913026332855225,-4.568136692047119,-0.4704606235027313,,17.46899427406214,33.55607249681402
1557947326704,,49.20489469220214,183.05826822916669,,,,,,,
1557947326744,,49.842093378481295,,,,,,,,
1557947326771,,,,6.366017015209703,,,,,,
1557947326772,,,,,1.9249382019042969,-6.971915245056152,0.5446808934211731,1000.0599975585938,13.799020934893008,33.30060009744991
1557947326784,,41.77526910957744,,,,,,,,
1557947326790,0.0,,,2.827623860338684,,,,,,
1557947326824,,39.489044325569886,,,,,,,,
1557947326832,,,,,,-7.5417351722717285,-0.8008604645729065,,300.91898662279476,
1557947326833,,,61.0107421875,,5.430049419403076,,,,,33.0289271053441
1557947326851,,,,2.765471200923048,,,,,,
1557947326864,,38.81977708986192,61.0107421875,,,,,,,
1557947326909,,,,5.8282398693229185,8.877699851989746,-7.987056732177734,-3.8606503009796143,,315.5534353158287,33.43336676833313
1557947326924,,37.36578208862788,61.0107421875,,,,,,,
1557947326929,0.0,,,,,,,,,
1557947326949,,,,,3.1076738834381104,-7.723694801330566,1.0330979824066162,1000.0299682617188,271.0709301762448,33.67699647881429
1557947326964,,39.07589620748106,,,,,,,,
1557947326993,,,,1.949868867817672,,,,,,
1557947327004,,40.85930107131527,,,,,,,,
1557947327014,,,452.36653645833337,,,,,,,
1557947327017,,,,,1.1540051698684692,-13.06755256652832,2.388216257095337,,209.98070054146444,33.032408842801026
1557947327044,,38.503590416290244,452.36653645833337,,,,,,,
1557947327078,,,,5.036593425192119,9.648633003234863,-13.235146522521973,-0.7769184708595276,,303.9987838063506,33.31516198961058
1557947327084,,36.7763622403367,452.36653645833337,,,,,,,
1557947327098,0.0,,,7.247078142366239,,,,,,
1557947327124,,38.3968465080011,,,,,,,,
1557947327161,,,,3.3741921764969325,1.4508862495422363,-11.065999984741211,2.7712883949279785,1000.0700073242188,299.8677658680164,31.454252221592508
1557947327184,,35.76015435085468,,,,,,,,
1557947327200,,,56.8798828125,,,,,,,
1557947327201,,,,,,,0.07541735470294952,,,
1557947327202,,,,,2.7006595134735107,-8.700529098510742,,,280.43318658479717,29.90033498316442
1557947327224,,36.74904225647823,56.8798828125,,,,,,,
1557947327232,,,,1.1948067087403367,,,,,,
1557947327233,0.0,,,,,,,,,
1557947327264,,35.16087159443797,56.8798828125,,,,,,,
1557947327272,,,41.875,,,,,,,
1557947327304,,32.456450231517515,41.875,,,,,,,
1557947327312,,,,,,,0.1041477769613266,,276.707188618961,29.48813426721054
1557947327313,,,,2.4251736726215523,5.118803024291992,-7.484274387359619,,,,
1557947327331,,,,,,,-0.0011971008498221636,,,
1557947327332,,,,,,-6.4834980964660645,,,292.55977081461543,
1557947327333,,,,,2.3989901542663574,,,1000.0700073242188,,29.132457194331668
1557947327344,,34.13770588335557,41.875,,,,,,,
1557947327364,0.0,,,2.90201235043338,,,,,,
1557947327384,,33.683877164677234,,,,,,,,
1557947327386,,,,,6.248866558074951,-7.2352776527404785,1.8136078119277954,,290.88993982670905,29.406973306838967
1557947327432,,,,3.0461714494710823,,,,,,
1557947327444,,34.89798063608324,,,,,,,,
1557947327452,,,,,5.2672438621521,-7.412448406219482,0.1999158412218094,,296.75509156889075,28.68414282625326
1557947327484,,36.6243961605685,,,,,,,,
1557947327494,,,168.47923642113096,,,,,,,
1557947327513,,,,1.3734574768904992,7.920019149780273,-10.84094524383545,-0.729034423828125,1000.0599975585938,303.9183002722658,28.20265979685395
1557947327524,,38.97511573295312,168.47923642113096,,,,,,,
1557947327532,0.0,,,,,,,,,
1557947327539,,,,3.763692272786254,,,,,,
1557947327564,,37.90929543255865,168.47923642113096,,,,,,,
1557947327581,,,,,1.6136919260025024,-18.933347702026367,1.2006921768188477,,232.16067436157033,28.072051228863277
1557947327604,,40.83934042351299,,,,,,,,
1557947327621,,,,12.987850086828447,,,,,,
1557947327663,,,,4.559484242835909,2.7964274883270264,-9.069235801696777,-1.9069817066192627,,318.60670062955364,26.731817230100134
1557947327664,,47.17590352363107,,,,,,,,
1557947327673,,,45.1904296875,,,,,,,
1557947327682,0.0,,,,,,,,,
1557947327704,,45.09472492874316,45.1904296875,,,,,,,
1557947327722,,,,,,,-0.10175357013940811,,,
1557947327723,,,,,1.2114660739898682,-7.51779317855835,,1000.1199951171875,300.2942497099812,25.250940948176776
1557947327727,,,,5.7537998414931675,,,,,,
1557947327744,,43.26829400443896,45.1904296875,,,,,,,
1557947327750,,,0.0,,,,,,,
1557947327784,,42.4094151947118,,,,,,,,
1557947327805,,,,,1.4317326545715332,-6.780379295349121,-0.7146692276000977,,279.837430164632,
1557947327806,,,,5.219450029946863,,,,,,25.087447121815835
1557947327824,,44.4725563969028,,,,,,,,
1557947327829,0.0,,,,,,,,,
1557947327834,,,,,2.873042106628418,-7.762001991271973,-1.7729063034057617,,271.27095226608867,25.004400580867955
1557947327837,,,43.06640625,,,,,,,
1557947327838,,,43.06640625,,,,,,,
1557947327864,,35.135616132948805,43.06640625,,,,,,,
1557947327882,,,,3.0413604129264122,,,,,,
1557947327924,,43.83747212366277,43.06640625,,,,,,,
1557947327929,,,,1.6975303241566186,6.497863292694092,-7.805097579956055,-2.7545289993286133,1000.1300048828125,310.655503246918,25.004400580867955
1557947327934,,,64.3408203125,,,,,,,
1557947327935,,,64.3408203125,,,,,,,
1557947327964,,42.159658970711575,64.3408203125,,,,,,,
1557947327970,,,,,,,-0.4465186297893524,,312.2110754152938,
1557947327971,,,,,7.082048416137695,-7.15387487411499,,,313.034420568793,24.975589135813607
1557947327975,0.0,,,,,,,,,
1557947327989,,,,1.757952875254337,,,,,,
1557947328004,,40.18489483700773,64.3408203125,,,,,,,
1557947328013,,,55.2099609375,,,,,,,
1557947328044,,35.13527570909608,55.2099609375,,,,,,,
1557947328061,,,,4.289449372067159,1.944091796875,-6.636727333068848,0.3818751573562622,,229.1616339196661,25.01159823353928
1557947328084,,42.08159977212853,55.2099609375,,,,,,,
1557947328085,,,,,6.627150535583496,-13.599065780639648,-4.291606426239014,1000.1300048828125,237.29651216455636,24.748536318260147
1557947328124,,41.216421248839595,,,,,,,,
1557947328125,0.0,,,6.339878949474835,,,,,,
1557947328153,,,,,0.10534487664699554,-11.496956825256348,2.5989060401916504,,108.18510796207033,24.969782942507216
1557947328184,,44.13319553513257,,,,,,,,
1557947328210,,,,6.875936548425149,,,,,,
1557947328211,,,,,4.2329487800598145,-13.493721008300781,1.037886381149292,,225.16389687770095,24.46242005457459
1557947328224,,44.834032265711144,,,,,,,,
1557947328231,,,47.87109375,,,,,,,
1557947328232,,,47.87109375,,,,,,,
1557947328264,,39.503076425343146,47.87109375,,,,,,,
1557947328290,,,,5.219697238136758,2.9688100814819336,-11.961431503295898,3.312378168106079,1000.1599731445313,217.8464829934345,24.630265674993527
1557947328291,0.0,,,,,,,,,
1557947328304,,38.412291443055956,47.87109375,,,,,,,
1557947328311,,,,5.371874233066045,,,,,,
1557947328344,,36.6098320199907,,,,,,,,
1557947328364,,,,,,,1.5837644338607788,,166.89795365244436,
1557947328365,,,,2.97007127772641,2.073378562927246,-9.835380554199219,,,191.1802633415458,24.93772224116906
1557947328404,,33.93077654844718,,,,,,,,
1557947328414,,,44.0673828125,,,,,,,
1557947328431,,,,,,-8.307879447937012,0.8990227580070496,,217.0468864076795,
1557947328432,,,,2.0221504035651434,2.1068975925445557,,,,,24.388111704355467
1557947328433,0.0,,,,,,,,,
1557947328444,,33.09305389602929,44.0673828125,,,,,,,
1557947328484,,33.740131150497646,44.0673828125,,,,,,,
1557947328513,,,,1.8764065870681321,3.1747114658355713,-8.010998725891113,1.2677297592163086,1000.0799560546875,204.1135407236668,24.326322829688948
1557947328524,,40.41468782841126,,,,,,,,
1557947328555,,,,,,,1.157596468925476,,245.74611186602243,
1557947328556,,,,1.8480190058098296,3.974374771118164,-9.667786598205566,,,258.4166113802055,24.12571217172602
1557947328564,,39.532668655912,,,,,,,,
1557947328580,,,1781.1767578125,,,,,,,
1557947328597,,,,,,-9.313444137573242,-0.8870517015457153,,299.41605813744684,
1557947328598,0.0,,,,5.501875400543213,,,,,24.196695073712768
1557947328604,,36.228028104673015,1781.1767578125,,,,,,,
1557947328617,,,,3.4249068811385537,,,,,,
1557947328656,,,,,,,-0.2645592987537384,,,
1557947328657,,,,,7.647080421447754,-10.290278434753418,,1000.1099853515625,313.79360634032366,23.944102752245882
1557947328664,,35.74152189841249,1781.1767578125,,,,,,,
1557947328678,,,,5.377973931433448,,,,,,
1557947328704,,36.46152847894486,,,,,,,,
1557947328719,,,,,6.794744491577148,-10.821791648864746,3.068169593811035,,322.0393829516728,24.140630840411944
1557947328737,0.0,,,,,,,,,
1557947328742,,,,6.061232601494028,,,,,,
1557947328744,,38.687814193624696,,,,,,,,
1557947328752,,,77.2314453125,,,,,,,
1557947328784,,41.37998832508131,77.2314453125,,,,,,,
1557947328788,,,,,,,4.471171855926514,,,
1557947328789,,,,,1.4700398445129395,-14.97812557220459,,,115.68407510466488,24.499184031230634
1557947328824,,43.71275161453636,77.2314453125,,,,,,,
1557947328831,,,,9.842274194926953,,,,,,
1557947328864,,40.27094049014402,77.2314453125,,,,,,,
1557947328873,,,,,,,2.9963433742523193,,,
1557947328874,,,,5.539082816319406,3.2321722507476807,-9.23682975769043,,1000.0999755859375,64.81843375171849,24.90180758843763
1557947328879,,,71.5869140625,,,,,,,
1557947328904,0.0,,,,,,,,,
1557947328910,,,,,3.4811692237854004,-9.040505409240723,3.934870481491089,,47.968063371162714,25.5978515878341
1557947328924,,42.40903982590989,71.5869140625,,,,,,,
1557947328964,,46.7626999454503,71.5869140625,,,,,,,
1557947328972,,,44.375,,,,,,,
1557947328974,,,,6.303673644956498,0.4118026793003082,-8.96389102935791,2.187103271484375,,59.39279102224879,25.3694702670224
1557947329004,,42.16653590881365,44.375,,,,,,,
1557947329005,,,,6.654462834094993,,,,,,
1557947329044,,40.521354682688084,44.375,,,,,,,
1557947329053,,,46.4306640625,,,,,,,
1557947329064,,,,,,,1.1336544752120972,,66.08488059743308,
1557947329065,,,,5.388821242040054,1.1348515748977661,-8.87291145324707,,1000.0899658203125,101.95138555189646,25.133842750044675
1557947329066,0.0,,,,,,,,,
1557947329084,,38.040091287060285,46.4306640625,,,,,,,
1557947329114,,,,,3.801992416381836,-9.222464561462402,-0.20709845423698425,,146.27964794454851,25.86020137330826
1557947329144,,32.32683028287861,46.4306640625,,,,,,,
1557947329152,,,48.8330078125,,,,,,,
1557947329163,,,,2.6550505678925225,,,,,,
1557947329168,,,,,4.189853191375732,-8.815450668334961,-0.4465186297893524,,133.62903111103935,26.860752037126584
1557947329184,,39.098489254588856,48.8330078125,,,,,,,
1557947329189,0.0,,,,,,,,,
1557947329198,,,,2.0197111599324455,,,,,,
1557947329225,,35.40938730880167,48.8330078125,,,,,,,
1557947329234,,,,,3.8594532012939453,-7.996633529663086,1.521515130996704,1000.0700073242188,129.03011447870804,27.52907625898211
1557947329253,,,,3.544795968838455,,,,,,
1557947329267,,32.4697942776813,,,,,,,,
1557947329304,,33.58255171816692,,,,,,,,
1557947329314,,,934.5068359375,,,,,,,
1557947329330,,,,,9.313444137573242,-8.303091049194336,-1.313219666481018,,103.63290982366186,
1557947329331,,,,3.9682249187435565,,,,,,27.77588966586025
1557947329344,,39.553504058555134,934.5068359375,,,,,,,
1557947329386,,,,,,-6.536170482635498,2.670732021331787,,72.1080146151171,
1557947329387,0.0,,,5.1496991708538635,2.7724854946136475,,,,,28.86260637781656
1557947329404,,33.218078557723864,934.5068359375,,,,,,,
1557947329438,,,,,3.687070608139038,-22.697032928466797,-6.872556209564209,1000.0599975585938,189.93042068570355,28.75360891629188
1557947329444,,36.434745243214365,,,,,,,,
1557947329447,,,,15.290126352230955,,,,,,
1557947329484,,40.64820919580818,,,,,,,,
1557947329491,,,56.044921875,,,,,,,
1557947329514,,,,7.289956842407241,0.023942016065120697,-2.868253707885742,-1.2701239585876465,,222.370158261869,29.113742742551885
1557947329524,,40.687308430457875,56.044921875,,,,,,,
1557947329534,0.0,,,,,,,,,
1557947329546,,,,,,,3.9588124752044678,,46.71884909272404,
1557947329547,,,,,1.7621324062347412,-11.286267280578613,,,,28.78767133389305
1557947329564,,34.047336093241455,56.044921875,,,,,,,
1557947329600,,,,4.420946434844098,,,,,,
1557947329604,,33.86074142833466,56.044921875,,,,,,,
1557947329611,,,0.0,,,,,,,
1557947329638,,,,,,,1.5310919284820557,,39.2384464042936,
1557947329639,,,,0.5112428563465308,2.9448680877685547,-9.097966194152832,,1000.0299682617188,71.92160509228916,28.006606267473348
1557947329664,,34.413546870892134,,,,,,,,
1557947329681,,,,,,,1.416170358657837,,,
1557947329682,,,,,2.6671407222747803,-10.012551307678223,,,73.57379370156934,27.295971783181272
1557947329683,0.0,,,,,,,,,
1557947329700,,,,0.7807989344217307,,,,,,
1557947329704,,34.88559602643352,,,,,,,,
1557947329715,,,25.59295654296875,,,,,,,
1557947329744,,34.39785587962978,25.59295654296875,,,,,,,
1557947329763,,,,0.830492773273772,2.5474305152893066,-8.49941635131836,1.4401123523712158,,67.79527607882017,27.22021360191606
1557947329784,,34.54750244618297,25.59295654296875,,,,,,,
1557947329824,,33.406072751314156,,,,,,,,
1557947329841,0.0,,,0.5804555159814792,3.4380736351013184,-8.71489429473877,1.3874398469924927,1000.0599975585938,57.07477849720283,26.904646695491177
1557947329864,,,,,2.628833532333374,-8.614337921142578,1.7705121040344238,,52.76315328174053,27.42644707783629
1557947329884,,33.46248117334217,,,,,,,,
1557947329895,,,106.18988037109375,,,,,,,
1557947329903,,,,0.8043605177138032,,,,,,
1557947329924,,32.70374548783914,106.18988037109375,,,,,,,
1557947329964,,31.196093041048364,106.18988037109375,,,-8.250418663024902,0.5925649404525757,,69.51998763670758,
1557947329965,,,,1.6165904541666345,2.054224967956543,,,,,27.305310818915427
1557947330003,,,,,,-8.59997272491455,0.8607155084609985,,65.45295149542346,
1557947330004,,32.70741535552587,,,2.585737943649292,,,1000.0700073242188,,26.568213803846618
1557947330006,0.0,,,,,,,,,
1557947330022,,,,0.8588986550478144,,,,,,
1557947330044,,32.707621504017254,,,,,,,,
1557947330059,,,74.00270492311508,,,,,,,
1557947330060,,,74.00270492311508,,,,,,,
1557947330065,,,,,3.6343982219696045,-7.86734676361084,1.3970166444778442,,52.90998185832831,27.084128718556503
1557947330083,,,,1.4451263307833049,,,,,,
1557947330084,,32.4030348414233,74.00270492311508,,,,,,,
1557947330131,,,,,3.797203779220581,-7.785943984985352,2.3546974658966064,,45.06940963458476,26.443525533370376
1557947330144,,33.940515508861225,74.00270492311508,,,,,,,
1557947330156,0.0,,,2.043384983702257,,,,,,
1557947330184,,36.40462957943371,,,,,,,,
1557947330214,,,,,,-6.919242858886719,-0.910993754863739,1000.0899658203125,47.1300981977451,
1557947330215,,,,2.4790697372679027,5.544970989227295,,,,,26.974246962061862
1557947330224,,39.73339486897784,,,,,,,,
1557947330255,,,,,8.916007041931152,-12.09550666809082,-0.8487445116043091,,67.90663548304803,
1557947330256,,,,,,,,,,27.678511228662938
1557947330264,,36.4271079174715,,,,,,,,
1557947330280,,,118.19917224702381,,,,,,,
1557947330294,,,,5.329526118527921,,,,,,
1557947330297,0.0,,,,,,,,,
1557947330304,,43.04796064079711,118.19917224702381,,,,,,,
1557947330325,,,,,,,0.25258827209472656,,,
1557947330326,,,,,2.920926094055176,-11.985373497009277,,,79.75234184362785,27.16725941376063
1557947330344,,47.53947435062144,118.19917224702381,,,,,,,
1557947330373,,,,4.334837407953562,,,,,,
1557947330374,,,,,3.4763808250427246,-12.57913589477539,-3.132812976837158,1000.0899658203125,126.12750264750605,27.714437684905175
1557947330404,,43.299685117128064,,,,,,,,
1557947330405,,,,4.78759643616921,,,,,,
1557947330444,,41.70607549093846,,,,,,,,
1557947330451,,,79.7412109375,,,,,,,
1557947330465,,,,,,-10.433931350708008,-2.2804770469665527,,121.22435572916402,
1557947330466,,,,3.09852078124374,3.332728862762451,,,,,29.23114904288788
1557947330467,0.0,,,,,,,,,
1557947330484,,36.253590274905584,79.7412109375,,,,,,,
1557947330507,,,,,4.089296340942383,-6.9910688400268555,-0.8200140595436096,,95.73447223726998,29.874572153259926
1557947330524,,37.44295958290524,79.7412109375,,,,,,,
1557947330546,,,,1.9876895166406117,,,,,,
1557947330564,,37.71685717261455,,,,,,,,
1557947330565,,,,,1.2976573705673218,-5.477933406829834,-0.25977087020874023,1000.1199951171875,112.14579805797732,29.11116750344875
1557947330609,,,,4.867048185017108,,,,,,
1557947330611,0.0,,,,,,,,,
1557947330624,,37.80249710947621,,,,,,,,
1557947330628,,,,,,-4.946420669555664,-0.8391677141189575,,141.05234024819768,
1557947330629,,,,,1.2737152576446533,,,,,28.661124431410425
1557947330635,,,69.927978515625,,,,,,,
1557947330664,,34.489851505985314,69.927978515625,,,,,,,
1557947330699,,,,5.019379253535273,2.4229321479797363,-5.6455278396606445,0.19033902883529663,,105.38830942149019,28.53681924871022
1557947330704,,33.934894691713886,69.927978515625,,,,,,,
1557947330720,,,,3.69094945917121,,,,,,
1557947330744,,33.26592388489913,,,,,,,,
1557947330777,0.0,,,2.5913153562570748,5.60722017288208,-7.603984832763672,0.4920084476470947,1000.0899658203125,106.31289846905645,28.48912182920322
1557947330784,,35.54747015193,,,,,,,,
1557947330793,,,75.0341796875,,,,,,,
1557947330794,,,75.0341796875,,,,,,,
1557947330816,,,,,8.427590370178223,-9.974244117736816,-4.99550199508667,,131.27663199861692,28.773947836881362
1557947330824,,32.84145575741779,75.0341796875,,,,,,,
1557947330860,,,,6.791761276740694,,,,,,
1557947330881,,,,,6.540958881378174,-7.479485988616943,-1.499967336654663,,110.67303851819332,28.56326279304025
1557947330884,,41.42232339700407,75.0341796875,,,,,,,
1557947330924,,43.005891553639316,,,,,,,,
1557947330950,0.0,,,2.7173083637682587,1.460463047027588,-13.172897338867188,1.6508020162582397,1000.0700073242188,90.56955831898722,29.523042967664395
1557947330964,,42.53238238319534,,,,,,,,
1557947330969,,,,4.888134794646101,,,,,,
1557947331004,,38.5610393498746,,,,,,,,
1557947331011,,,,,,,1.8279730081558228,,76.58570905005905,
1557947331012,,,0.0,,7.3885064125061035,-12.373234748840332,,,71.96716928424229,29.775997097125938
1557947331044,,36.99422339732693,,,,,,,,
1557947331062,,,,4.931295431916529,,,,,,
1557947331104,,39.949356202266785,,,,,,,,
1557947331110,,,,,,,3.202244758605957,,35.757416588134504,
1557947331111,,,250.3043212890625,3.1801469550575363,1.6280571222305298,-10.639832496643066,,,,30.488522816885634
1557947331113,0.0,,,,,,,,,
1557947331134,,,,,,,-0.34596213698387146,,,
1557947331135,,,,,2.3080103397369385,-10.884040832519531,,1000.1499633789063,38.59654522609583,30.488522816885634
1557947331144,,38.10510200916669,250.3043212890625,,,,,,,
1557947331184,,36.962945789290615,250.3043212890625,,,,,,,
1557947331192,,,,2.4492043429350985,,,,,,
1557947331197,,,,,3.442862033843994,-6.603208065032959,1.6268600225448608,,67.0514821385841,30.918440841569602
1557947331221,,,,2.6555918158587652,,,,,,
1557947331224,,34.956647173279855,,,,,,,,
1557947331264,,31.43615022630243,,,,,,,,
1557947331268,,,,,,-8.494627952575684,-0.08259996026754379,,88.59952685668043,
1557947331269,0.0,,,,4.32871675491333,,,,,30.98935346149919
1557947331274,,,186.63623046875,,,,,,,
1557947331304,,33.04500962240878,186.63623046875,,,,,,,
1557947331324,,,,1.4742426334098082,,-5.640739440917969,1.047463297843933,1000.1599731445313,85.64986185228622,
1557947331325,,,,,1.7046716213226318,,,,,30.863247185241583
1557947331362,,,,4.026363753068205,,,,,,
1557947331367,,33.0246170971366,186.63623046875,,,,,,,
1557947331380,,,158.86881510416669,,,,,,,
1557947331384,0.0,,,,,,,,,
1557947331404,,35.420464622921756,158.86881510416669,,,,,,,
1557947331427,,,,4.011677861585688,8.087613105773926,-7.000645637512207,1.7322049140930176,,63.60153309824318,31.50714187494818
1557947331444,,36.71647255487236,158.86881510416669,,,,,,,
1557947331450,,,,,,,-0.18315643072128296,,,
1557947331451,,,,,,,,,77.60837961410675,
1557947331484,,40.47883605110706,,,,,,,,
1557947331513,,,,1.763742303973412,,,-0.8104372620582581,,,
1557947331514,,,,,4.730942726135254,-10.56800651550293,,1000.1799926757813,82.57002027250076,31.125873141010572
1557947331524,,42.08742877794816,,,,,,,,
1557947331535,,,38.9599609375,,,,,,,
1557947331542,0.0,,,2.8203463988235007,,,,,,
1557947331564,,36.38321684301668,38.9599609375,,,,,,,
1557947331587,,,,,2.5234885215759277,-15.974113464355469,-1.7633295059204102,,136.44551425680748,30.62205063673847
1557947331606,,,,8.181487926406872,,,,,,
1557947331624,,36.30504520305089,38.9599609375,,,,,,,
1557947331664,,37.50591753585067,38.9599609375,,,,,,,
1557947331672,,,50.341796875,,,,,,,
1557947331676,,,,1.6341915603886628,5.295974254608154,-9.21288776397705,-1.701080322265625,,107.5868995039931,31.177075248604208
1557947331696,0.0,,,,,,,,,
1557947331704,,33.99233995667504,50.341796875,,,,,,,
1557947331739,,,,2.924707681769874,2.762908697128296,-7.259219646453857,-0.7338228225708008,1000.199951171875,117.55516444665483,32.97104879542118
1557947331744,,32.57693820897266,50.341796875,,,,,,,
1557947331768,,,,,0.871489405632019,-4.850652694702148,-0.5039794445037842,,137.85612590533353,33.3180140923337
1557947331784,,32.86552013192037,,,,,,,,
1557947331820,,,,5.450701418195403,,,,,,
1557947331831,,,,,1.843535304069519,-5.616796970367432,0.5015852451324463,,95.85718341589842,33.16338462814378
1557947331844,0.0,34.582721639226364,,,,,,,,
1557947331856,,,168.20589192708331,,,,,,,
1557947331884,,38.618095846739855,168.20589192708331,,,,,,,
1557947331904,,,,4.115432046525059,6.406883716583252,-7.3454108238220215,1.3491326570510864,1000.1300048828125,95.91192738209605,
1557947331905,,,,,,,,,,33.4067370450064
1557947331923,,,,3.1096726471564726,,,,,,
1557947331926,,42.61859811572691,168.20589192708331,,,,,,,
1557947331964,,42.83092831871713,,,,,,,,
1557947331979,,,,,7.101202011108398,-7.714118003845215,-1.7537527084350586,,114.0500001570635,33.245903195272206
1557947331998,0.0,,,3.8892393287315636,,,,,,
1557947332004,,44.43256270840445,,,,,,,,
1557947332019,,,318.4993896484375,,,,,,,
1557947332044,,42.06527969139379,318.4993896484375,,,,,,,
1557947332050,,,,,,,-2.6587610244750977,,130.7158461470022,
1557947332051,,,,2.714092694138184,5.099649429321289,-9.016563415527344,,,124.9547318462582,33.06266770145452
1557947332104,,44.13934828999257,318.4993896484375,,,,,,,
1557947332116,,,317.5528971354167,,,,,,,
1557947332139,,,,,,-11.118672370910645,3.489548921585083,,114.80951036257977,
1557947332140,,,,3.848005962454445,2.9688100814819336,,,1000.1499633789063,,33.55741350498291
1557947332144,,44.31014906725025,317.5528971354167,,,,,,,
1557947332158,,,,,8.83939266204834,-11.468226432800293,0.42018240690231323,,83.7582819427862,
1557947332159,0.0,,,,,,,,,33.59241009262351
1557947332174,,,,5.211675909018101,,,,,,
1557947332184,,43.25949418334501,317.5528971354167,,,,,,,
1557947332196,,,316.0381510416667,,,,,,,
1557947332224,,41.42591299916721,316.0381510416667,,,,,,,
1557947332237,,,,5.0121149157770795,0.8331822156906128,-11.793837547302246,3.8055837154388428,,25.545766392135818,33.82602561867524
1557947332264,,44.56947858186248,316.0381510416667,,,,,,,
1557947332278,,,308.53005642361114,,,,,,,
1557947332284,,,,,,,0.03232172131538391,,,
1557947332285,,,,,1.920149803161621,-8.882488250732422,,1000.1599731445313,27.06395864273145,33.82602561867524
1557947332304,,45.47423544633161,308.53005642361114,1.8692415184286726,,,,,,
1557947332305,0.0,,,,,,,,,
1557947332364,,45.85590093803968,308.53005642361114,,,,,,,
1557947332368,,,,2.4503493429750804,5.913678169250488,-8.106766700744629,0.6787561774253845,,80.11345394504644,34.30043858506313
1557947332404,,42.45230976502722,308.53005642361114,,,,,,,
1557947332416,,,310.05482313368054,,,,,,,
1557947332442,,,,1.9396747566199097,2.22660756111145,-7.929595947265625,1.3730746507644653,,67.76659611449526,34.40843001635634
1557947332444,,43.88828895189511,310.05482313368054,,,,,,,
1557947332461,0.0,,,,,,,,,
1557947332468,,,,,4.1611223220825195,-6.291962146759033,1.1432312726974487,1000.1599731445313,65.49403508328112,34.75759028632312
1557947332484,,39.78537644061111,310.05482313368054,,,,,,,
1557947332497,,,311.87668185763886,,,,,,,
1557947332523,,,,2.626280971600482,,,,,,
1557947332527,,38.169157351410504,311.87668185763886,,,,,,,
1557947332584,,38.96501587940086,311.87668185763886,,,,,,,
1557947332585,,,,2.272937837729965,6.04775333404541,-7.101202011108398,1.3970166444778442,,70.88218007420744,34.55676627419421
1557947332601,,,310.77142333984375,,,,,,,
1557947332624,,41.74821354815131,310.77142333984375,,,,,,,
1557947332629,,,,,,,-1.413776159286499,,82.21536953003704,
1557947332630,,,,6.445694235854576,11.238382339477539,-11.362881660461426,,,,34.75773281809376
1557947332631,0.0,,,,,,,,,
1557947332659,,,,,1.6855180263519287,-11.30063247680664,-0.36990416049957275,1000.1599731445313,86.52567651898943,34.83145194605166
1557947332664,,41.8442319599377,310.77142333984375,,,,,,,
1557947332674,,,275.980224609375,,,,,,,
1557947332698,,,,5.2015822130897105,,,,,,
1557947332705,,39.93899533856448,275.980224609375,,,,,,,
1557947332722,,,,,,,-2.122459888458252,,,
1557947332723,,,,,3.88818359375,-13.82412052154541,,,126.7851132607949,34.79813201429008
1557947332744,,37.50974355677531,275.980224609375,,,,,,,
1557947332784,,45.211316384601155,,,,,,,,
1557947332795,,,,5.875043503620513,,,,,,
1557947332796,,,,,3.2609026432037354,-8.595184326171875,-0.9062053561210632,,111.52789816452292,36.68869256857851
1557947332799,0.0,,,,,,,,,
1557947332815,,,,2.0618123150721086,,,,,,
1557947332844,,43.77027611614514,,,,,,,,
1557947332855,,,269.8291015625,,,,,,,
1557947332856,,,269.8291015625,,,,,,,
1557947332877,,,,4.260446835934148,1.9584569931030273,-5.731719017028809,0.09935937076807022,1000.219970703125,117.01761489859649,36.94509652293845
1557947332884,,46.48146048935824,269.8291015625,,,,,,,
1557947332924,,44.836060830079944,269.8291015625,,,,,,,
1557947332964,,44.868192348207366,,,,,,,,
1557947332972,,,,5.737312250659909,-0.4405331015586853,-5.185841083526611,-0.8678981065750122,,226.14154283473988,37.05415193019902
1557947332975,0.0,,,,,,,,,
1557947332991,,,,,4.1180267333984375,-6.517016887664795,0.8319851160049438,,93.0062624563351,37.294237773014004
1557947332999,,,,3.0397032231476895,,,,,,
1557947333004,,38.667613513024406,,,,,,,,
1557947333038,,,,,,-9.332598686218262,-0.8200140595436096,1000.1499633789063,107.44824666384181,
1557947333039,,,,,7.307103633880615,,,,,37.303755267157996
1557947333044,,45.19219862073093,,,,,,,,
1557947333057,,,527.5634765625,,,,,,,
1557947333063,,,,4.00862621947725,,,,,,
1557947333104,,46.564304717348755,527.5634765625,,,,,,,
1557947333126,,,,4.418450313263279,7.723694801330566,-8.89685344696045,-3.26688814163208,,115.51823811161694,37.170151581228154
1557947333144,,48.80960992859211,527.5634765625,,,,,,,
1557947333146,0.0,,,,,,,,,
1557947333156,,,534.345703125,,,,,,,
1557947333184,,46.3683314272465,534.345703125,,,,,,,
1557947333205,,,,3.633211897357636,0.2537853717803955,-9.701305389404297,-1.7298107147216797,,190.03040099477425,36.69686856903648
1557947333224,,43.51998658026616,534.345703125,,,,,,,
1557947333227,,,,,4.836287498474121,-12.919112205505371,2.93888258934021,1000.22998046875,184.06627981151905,37.87518914203818
1557947333264,,42.98379035793279,,,,,,,,
1557947333290,,,,4.738040323571348,,,,,,
1557947333292,,,,,,,1.7130513191223145,,,
1557947333293,,,,,4.869806289672852,-12.047622680664063,,,73.47100618474985,36.52971384856906
1557947333312,0.0,,,,,,,,,
1557947333314,,,,3.4407563478100447,,,,,,
1557947333324,,45.980624661468006,,,,,,,,
1557947333338,,,239.84935215541293,,,,,,,
1557947333364,,44.494878807943536,239.84935215541293,,,,,,,
1557947333377,,,,,,,2.0482394695281982,,46.963786506549866,
1557947333378,,,,3.0090045895096176,1.5275006294250488,-11.252747535705566,,,,37.18642386563961
1557947333404,,43.04258829239373,239.84935215541293,,,,,,,
1557947333415,,,177.66642252604169,,,,,,,
1557947333433,,,,,,,1.6699557304382324,,46.74971130248878,
1557947333434,,,,,4.108449935913086,-11.195286750793457,,1000.2799682617188,,36.313908886784624
1557947333444,,43.09790847058436,177.66642252604169,,,,,,,
1557947333477,,,,2.246428410020866,,,,,,
1557947333481,0.0,,,,3.950432777404785,-6.536170482635498,0.8080430626869202,,77.83350947933951,37.10700679018231
1557947333484,,41.56979056084591,177.66642252604169,,,,,,,
1557947333495,,,236.89127604166669,,,,,,,
1557947333504,,,,2.6996920621956817,,,,,,
1557947333524,,40.19571688504149,236.89127604166669,,,,,,,
1557947333545,,,,,,,-0.585382342338562,,,
1557947333546,,,,,5.386953830718994,-8.916007041931152,,,92.89178848584567,37.37619530440934
1557947333572,,,,2.130971372407605,,,,,,
1557947333584,,39.46624205732589,236.89127604166669,,,,,,,
1557947333595,,,231.1767578125,,,,,,,
1557947333624,,36.98916392802004,231.1767578125,,,,,,,
1557947333629,,,,,2.782062292098999,-6.938396453857422,0.45848962664604187,1000.219970703125,81.01102276425615,37.353714194733655
1557947333664,,36.766097426917696,231.1767578125,,,,,,,
1557947333675,0.0,,,2.3244532362676638,5.262455463409424,-7.718906402587891,1.780089020729065,,67.2796446078084,37.28618997669732
1557947333704,,35.2652174344655,,,,,,,,
1557947333716,,,,2.169492004281331,,,,,,
1557947333735,,,,,7.881711959838867,-6.311115741729736,-0.4225766062736511,,74.4865801822499,37.450768177420045
1557947333744,,34.37503328973254,,,,,,,,
1557947333781,,,,3.311732077206169,,,,,,
1557947333784,,38.317343026316614,,,,,,,,
1557947333795,,,239.3804931640625,,,,,,,
1557947333801,,,,,7.1490864753723145,-12.808979034423828,-1.5191209316253662,1000.2599487304688,78.26583996323382,36.99581146193761
1557947333802,0.0,,,,,,,,,
1557947333844,,35.74719741989521,239.3804931640625,,,,,,,
1557947333877,,,,5.182421484875523,,-11.003750801086426,-0.4944026470184326,,106.5863929038021,
1557947333878,,,,,2.3702597618103027,,,,,37.30536375522115
1557947333884,,33.839469504328555,239.3804931640625,,,,,,,
1557947333888,,,,4.207152298484865,,,,,,
1557947333924,,32.26254098587671,,,,,,,,
1557947333942,0.0,,,,4.127603530883789,-12.57913589477539,-2.1128830909729004,,118.55987161318538,36.85457907167595
1557947333964,,33.63216987157409,,,,,,,,
1557947333976,,,98.2763671875,,,,,,,
1557947333985,,,,4.724522577618376,,,,,,
1557947333987,,,,,3.428496837615967,-9.289502143859863,-1.313219666481018,1000.2599487304688,122.18203021306985,37.90527825854588
1557947334004,,35.85366598669549,98.2763671875,,,,,,,
1557947334010,,,,2.2625267153685384,,,,,,
1557947334064,,34.201820565697645,98.2763671875,,,,,,,
1557947334070,,,,,2.920926094055176,-5.851428985595703,-0.20709845423698425,,97.54119387652173,
1557947334071,,,,,,,,,,38.23480095542279
1557947334074,,,,3.3869210681080593,,,,,,
1557947334090,0.0,,,,,,,,,
1557947334104,,32.47557226092943,,,,,,,,
1557947334137,,,,,-0.6560112833976746,-4.917690277099609,-0.27892449498176575,,260.7631160393742,
1557947334138,,,,6.400921051983121,,,,,,38.96267661139395
1557947334144,,33.44052438792815,,,,,,,,
1557947334154,,,697.4072265625,,,,,,,
1557947334184,,34.75187209351909,697.4072265625,,,,,,,
1557947334190,,,,,2.2170307636260986,-5.57370138168335,0.669179379940033,1000.199951171875,263.3199290532768,
1557947334191,,,,,,,,,,38.443986744927734
1557947334224,,36.1210822199947,697.4072265625,,,,,,,
1557947334234,,,,3.831739066492086,,,,,,
1557947334240,,,,,,-10.424354553222656,-1.1743559837341309,,107.6954926816071,
1557947334241,0.0,,,,7.383718013763428,,,,,38.56695635056789
1557947334264,,36.86683646627256,,,,,,,,
1557947334301,,,,4.417406823860052,,,,,,
1557947334320,,,,,8.667010307312012,-8.638279914855957,-3.669114112854004,,110.71004448311643,37.85551419927814
1557947334324,,34.08649309065613,,,,,,,,
1557947334334,,,272.36572265625,,,,,,,
1557947334364,,35.055125165725364,272.36572265625,,,,,,,
1557947334397,,,,5.600189764349822,-0.7565677165985107,-12.497733116149902,-0.9828197956085205,1000.239990234375,98.46922533942973,
1557947334398,,,,,,,,,,37.66603243215086
1557947334404,,39.02576956477729,272.36572265625,,,,,,,
1557947334423,0.0,,,,,,,,,
1557947334444,,38.097362862142205,272.36572265625,,,,,,,
1557947334451,,,141.9970703125,,,,,,,
1557947334481,,,,2.2929142648179552,5.48272180557251,-10.314221382141113,1.823184609413147,,74.11780460858256,37.7773764142395
1557947334484,,37.65400064011534,141.9970703125,,,,,,,
1557947334499,,,,,,-15.557522773742676,1.4927847385406494,,75.26728446476068,
1557947334500,,,,,6.703764915466309,,,,,37.710212834146375
1557947334524,,37.745221358701784,141.9970703125,,,,,,,
1557947334532,,,72.03125,,,,,,,
1557947334555,,,,7.2040331882388005,,,,,,
1557947334559,,,,,1.0678139925003052,-8.087613105773926,2.3546974658966064,1000.1900024414063,77.59862610397192,37.29825945518417
1557947334575,0.0,,,,,,,,,
1557947334583,,,,2.829800609937809,,,,,,
1557947334584,,33.12297602360586,72.03125,,,,,,,
1557947334624,,33.82716838388096,72.03125,,,,,,,
1557947334636,,,76.30488804408482,,,,,,,
1557947334651,,,,,2.801215887069702,-9.466673851013184,1.4209587574005127,,66.03982183947846,
1557947334652,,,,0.3563028129113288,,,,,,37.9048832900306
1557947334664,,45.55273779806352,76.30488804408482,,,,,,,
1557947334704,,35.21304223520611,76.30488804408482,,,,,,,
1557947334710,,,,3.3247524599559153,2.8155810832977295,-5.904101371765137,0.5446808934211731,,75.51864225640634,38.23428013523626
1557947334712,,,62.939453125,,,,,,,
1557947334713,,,62.939453125,,,,,,,
1557947334744,,31.291623428167238,62.939453125,,,,,,,
1557947334756,,,,,6.957550048828125,-7.3693528175354,0.36750996112823486,1000.2599487304688,74.82027590434001,38.590415399779076
1557947334758,0.0,,,,,,,,,
1557947334775,,,,3.2832394336369783,,,,,,
1557947334804,,33.3284037502426,62.939453125,,,,,,,
1557947334834,,,,,3.4141316413879395,-7.273584842681885,2.560598611831665,,48.416055478823864,38.91452426966513
1557947334844,,34.74861351466772,,,,,,,,
1557947334852,,,,2.812436844858412,,,,,,
1557947334884,,43.982958034093535,,,,,,,,
1557947334898,,,54.5166015625,,,,,,,
1557947334909,,,,,,,-0.005985504016280174,,,
1557947334910,,,,3.652031314970465,8.686163902282715,-7.996633529663086,,,70.33045105343211,39.09347864631624
1557947334911,0.0,,,,,,,,,
1557947334924,,38.61829422051486,54.5166015625,,,,,,,
1557947334964,,39.34810067751618,54.5166015625,,,,,,,
1557947334974,,,,4.515654355913987,7.886500358581543,-11.243170738220215,-2.941276788711548,1000.22998046875,70.7423524415189,39.20382563743743
1557947335004,,37.3785357360608,,,,,,,,
1557947335031,,,,,1.460463047027588,-16.16086196899414,0.9469067454338074,,50.586085125312366,40.21082155129795
1557947335032,,,,7.932611837623612,,,,,,
1557947335052,0.0,,,,,,,,,
1557947335064,,37.542073789908144,,,,,,,,
1557947335075,,,99.3994140625,,,,,,,
1557947335104,,35.924629068577744,99.3994140625,,,,-1.2078747749328613,,,
1557947335105,,,,2.7735045518963277,4.817133903503418,-11.367670059204102,,,86.2827198600229,39.935324319430286
1557947335129,,,,,1.6663644313812256,-6.636727333068848,0.22864626348018646,1000.2599487304688,72.2299949635044,41.425959640787916
1557947335144,,34.305929282470395,99.3994140625,,,,,,,
1557947335184,,33.52811989769998,99.3994140625,,,,,,,
1557947335203,,,,3.4573603414159058,,,,,,
1557947335204,,,,,-1.0678139925003052,-6.742072105407715,-1.3515268564224243,,214.47223293966482,41.51156465291621
1557947335224,,32.83201667911652,,,,,,,,
1557947335258,,,,4.829443692853897,,,-1.3515268564224243,,,
1557947335259,0.0,,,,2.1308395862579346,-5.679046630859375,,,113.3509576162694,41.19283922968623
1557947335264,,34.163905809145064,,,,,,,,
1557947335275,,,115.34781319754464,,,,,,,
1557947335300,,,,3.90800241453473,,,,,,
1557947335320,,,,,8.643068313598633,-9.849745750427246,-0.6572083830833435,1000.25,83.04861845783273,41.98630735538166
1557947335324,,35.1763287386792,115.34781319754464,,,,,,,
1557947335360,,,,4.084218117489024,,,,,,
1557947335364,,36.56967009902416,115.34781319754464,,,,,,,
1557947335380,0.0,,,,,,,,,
1557947335404,,40.20940240782872,,,,,,,,
1557947335444,,42.5836064813011,,,,,,,,
1557947335455,,,,,8.743624687194824,-5.171475887298584,-1.0833762884140015,,76.23663174195804,
1557947335456,,,,3.0278305745163605,1.2976573705673218,,,,,42.9009346017648
1557947335458,,,316.795166015625,,,,,,,
1557947335474,,,,8.19688471721927,,,,,,
1557947335484,,44.34246697768199,316.795166015625,,,,,,,
1557947335499,0.0,,,,,,,,,
1557947335543,,,,,,,3.3698389530181885,,,
1557947335544,,,,6.039813825251667,1.292868971824646,-15.021221160888672,,1000.2699584960938,6.014789660952431,42.018447743704264
1557947335546,,47.34093468615284,316.795166015625,,,,,,,
1557947335584,,50.144723307249556,,,,,,,,
1557947335624,,49.345378836658455,,,,,,,,
1557947335629,,,,,,,4.547786235809326,,,
1557947335630,,,,4.836876107923216,4.759673118591309,-12.914323806762695,,,28.410427984761895,42.257661599249325
1557947335634,,,600.0390625,,,,,,,
1557947335649,0.0,,,,1.8722656965255737,-12.617443084716797,0.9229647517204285,,45.995108587891195,42.47199066665055
1557947335664,,45.31164944649441,600.0390625,,,,,,,
1557947335690,,,,3.385908652527306,,,,,,
1557947335699,,,,,1.2258312702178955,-8.379706382751465,0.34835633635520935,1000.2899780273438,42.39422602727126,42.47199066665055
1557947335704,,43.141306247578406,600.0390625,,,,,,,
1557947335744,,40.114614290140054,,,,,,,,
1557947335763,,,,1.8578106366044718,,,1.502361536026001,,35.70081822557722,
1557947335764,,,,,2.470816135406494,-6.507440090179443,,,29.374546752149627,42.55196913209468
1557947335784,0.0,,,,,,,,,
1557947335797,,,,2.903157219025333,,,,,,
1557947335804,,39.213927018397726,,,,,,,,
1557947335844,,38.072820880977496,,,,,,,,
1557947335855,,,116.18449086991568,,,,,,,
1557947335871,,,,1.9750342812761976,3.35667085647583,-8.29830265045166,1.1959037780761719,,39.4726433456496,43.19421343107008
1557947335884,,39.146271718167874,116.18449086991568,,,,,,,
1557947335890,,,,,3.3949780464172363,-10.089165687561035,1.8279730081558228,1000.3200073242188,28.854434677042377,43.99295516316958
1557947335901,0.0,,,,,,,,,
1557947335924,,39.17122641799678,116.18449086991568,,,,,,,
1557947335944,,,,1.7256045899087402,,,,,,
1557947335964,,37.341786613882874,,,5.377377033233643,-9.155426979064941,1.9620482921600342,,30.28124070409052,44.323469622033514
1557947336004,,38.16972588951324,,,,,,,,
1557947336016,,,150.771484375,,,,,,,
1557947336034,,,,3.388164699978395,,,0.6500257849693298,,37.76315286432754,
1557947336035,,,,,6.98628044128418,-9.93593692779541,,,35.251221023461085,44.729185606418426
1557947336040,,,,4.879045030927503,,,,,,
1557947336063,0.0,,,,,,,,,
1557947336064,,39.40056666187404,150.771484375,,,,,,,
1557947336099,,,,,7.833827972412109,-8.293514251708984,-1.902193307876587,1000.2999877929688,34.21228436390504,44.88061900203267
1557947336104,,42.03225152753742,150.771484375,,,,,,,
1557947336116,,,101.67728969029018,,,,,,,
1557947336117,,,,4.353079895968885,,,,,,
1557947336144,,41.37100788082985,101.67728969029018,,,,,,,
1557947336164,,,,,4.094084739685059,-14.077905654907227,5.792770862579346,,48.141625308161906,45.8809328971145
1557947336166,,,,8.72236935544761,,,,,,
1557947336184,0.0,41.12251637501801,101.67728969029018,,,,,,,
1557947336224,,43.450600793393235,,,,,,,,
1557947336256,,,,4.7362556373319,2.5043349266052246,-10.237606048583984,2.009932279586792,,3.85776939039863,45.97107835714325
1557947336274,,,,,2.8443117141723633,-10.022128105163574,4.274847030639648,1000.2699584960938,9.755472960390932,45.63167759353145
1557947336284,,49.765832364184305,,,,,,,,
1557947336295,,,66.1767578125,,,,,,,
1557947336316,,,,6.36280434111029,,,,,,
1557947336319,0.0,,,,,,,,,
1557947336324,,47.68794987529439,66.1767578125,,,,,,,
1557947336355,,,,,0.5171475410461426,-8.767566680908203,4.0545806884765625,,329.9737268425315,43.29538180190731
1557947336356,,,,7.56337209670029,,,,,,
1557947336364,,46.31682397346801,66.1767578125,,,,,,,
1557947336404,,47.15735733364822,,,,,,,,
1557947336413,,,,,1.9057846069335938,-9.672574996948242,1.4065934419631958,,14.006008110142943,41.51987497487291
1557947336431,,,,5.664473651564422,,,,,,
1557947336433,0.0,,,,,,,,,
1557947336444,,46.38045891230357,,,,,,,,
1557947336454,,,115.0732421875,,,,,,,
1557947336479,,,,,,,-0.0347159244120121,,6.972932012816386,
1557947336480,,,,,0.2585737705230713,-9.064447402954102,,1000.3099975585938,,38.65371888048582
1557947336484,,41.614937484725644,115.0732421875,,,,,,,
1557947336498,,,,6.65122086640279,,,,,,
1557947336544,,38.188640645523066,115.0732421875,,,,,,,
1557947336571,,,,4.177421854179719,2.734178304672241,-9.078812599182129,-1.3323732614517212,,59.256221389794405,36.091827284294716
1557947336584,,39.65631038759687,115.0732421875,,,,,,,
1557947336590,0.0,,,,5.793968200683594,-8.667010307312012,0.4967968463897705,,25.412854325981925,34.09178786746157
1557947336624,,41.36290534207234,,,,,,,,
1557947336632,,,,1.4790704006336268,,,,,,
1557947336664,,41.14975627076576,,,,,,,,
1557947336677,,,258.6426188151042,,,,,,,
1557947336685,,,,5.088232316681355,11.152191162109375,-7.766790390014648,0.424970805644989,1000.2799682617188,14.27511073325229,32.69097756145639
1557947336704,,43.62343240381197,258.6426188151042,,,,,,,
1557947336744,,43.069372888710056,258.6426188151042,,,,,,,
1557947336750,,,,8.650535487540145,1.522712230682373,-15.059528350830078,-1.8160020112991333,,66.77992064737356,32.17840923040425
1557947336760,,,260.3060302734375,,,,,,,
1557947336767,0.0,,,,,,,,,
1557947336804,,44.140095758745154,260.3060302734375,,,,,,,
1557947336834,,,,,,,3.3315317630767822,,310.4869751593371,
1557947336835,,,,6.725768216298063,0.019153613597154617,-6.2201361656188965,,,,30.790258229366227
1557947336844,,41.528856299773736,260.3060302734375,,,,,,,
1557947336853,,,,,,-9.864110946655273,1.9333178997039795,1000.3200073242188,304.8811759452246,
1557947336854,,,,,1.7573440074920654,,,,,29.986830455115893
1557947336864,,,260.52490234375,,,,,,,
1557947336865,,,,3.918614221194883,,,,,,
1557947336884,,38.023352912386635,260.52490234375,,,,,,,
1557947336905,0.0,,,,3.6822822093963623,-9.409213066101074,2.522291421890259,,342.92940383003554,29.621951332480883
1557947336924,,38.30003943605917,260.52490234375,,,,,,,
1557947336935,,,260.78753662109375,,,,,,,
1557947336942,,,,2.906285931765024,,,,,,
1557947336964,,36.007396650991204,260.78753662109375,,,,,,,
1557947337004,,,,3.430056749769692,2.1930887699127197,-9.706093788146973,2.493561029434204,,330.7613262010094,29.95379777084125
1557947337024,,34.669281406809006,260.78753662109375,,,,,,,
1557947337032,,,,,1.1492167711257935,-9.457097053527832,2.6898856163024902,1000.2799682617188,324.9739088417717,
1557947337035,,,,,,,,,,29.75012740308268
1557947337036,0.0,,,,,,,,,
1557947337038,,,260.7065022786458,,,,,,,
1557947337064,,32.37523317276984,260.7065022786458,,,,,,,
1557947337071,,,,3.5042947577169365,,,,,,
1557947337096,,,,,2.3558945655822754,-9.57201862335205,0.2717418968677521,,358.3246232186527,29.232516719898506
1557947337105,,32.25861761618583,260.7065022786458,,,,,,,
1557947337144,,32.052204398568804,,,,,,,,
1557947337174,,,,1.3154016844353686,2.9257144927978516,-8.820239067077637,1.9716250896453857,,337.98882747504183,28.88079030699473
1557947337184,,32.322189447396624,,,,,,,,
1557947337192,,,,1.1963438683236667,,,,,,
1557947337193,0.0,,,,,,,,,
1557947337224,,32.46427151657485,,,,,,,,
1557947337235,,,150.07702055431548,,,,,,,
1557947337236,,,150.07702055431548,,,,,,,
1557947337248,,,,,,,2.254140853881836,,,
1557947337249,,,,1.5348549272902468,2.0254945755004883,-9.026140213012695,,1000.2899780273438,332.01450881935585,28.648561249219433
1557947337284,,39.342723025372976,150.07702055431548,,,,,,,
1557947337324,,35.01934404025804,150.07702055431548,,,,,,,
1557947337341,,,,1.4235293646605192,3.797203779220581,-9.749189376831055,2.096123695373535,,336.38007374624095,28.801563825800283
1557947337360,,,,,4.156333923339844,-8.83939266204834,2.603694438934326,,332.9935942387624,28.87594290395211
1557947337363,0.0,,,,,,,,,
1557947337364,,34.07287665813601,,,,,,,,
1557947337404,,33.37432845066208,,,,,,,,
1557947337418,,,307.75105794270837,,,,,,,
1557947337419,,,,2.4187045110323484,6.081272125244141,-9.77791976928711,1.4975731372833252,1000.3299560546875,329.8071692645261,
1557947337420,,,,,,,,,,29.031363639650223
1557947337442,,,,3.8192398031879815,,,,,,
1557947337444,,33.85312306743374,307.75105794270837,,,,,,,
1557947337504,,35.10146263165269,307.75105794270837,,,,,,,
1557947337516,,,,6.8652596572258515,7.3885064125061035,-10.170568466186523,-5.043385982513428,,22.653838684343043,28.973955113691208
1557947337536,0.0,,,,,,,,,
1557947337540,,,,,2.1978771686553955,-13.163320541381836,1.4927847385406494,,326.52553316080724,28.940802943217424
1557947337544,,39.46584072708404,,,,,,,,
1557947337584,,38.157914742518,,,,,,,,
1557947337593,,,1183.388671875,,,,,,,
1557947337594,,,,5.175896962149939,,,,,,
1557947337613,,,,,-0.5985504388809204,-12.440272331237793,0.7793126702308655,1000.2699584960938,234.82050028853502,28.98447920356384
1557947337624,,37.54259282194773,1183.388671875,,,,,,,
1557947337627,,,,7.276161609736008,,,,,,
1557947337664,,38.12786634133388,1183.388671875,,,,,,,
1557947337673,,,1136.259765625,,,,,,,
1557947337674,,,1136.259765625,,,,,,,
1557947337704,,37.206496327810015,1136.259765625,,,,,,,
1557947337716,,,,,4.01268196105957,-9.002198219299316,0.7218518257141113,,353.59749208949086,
1557947337717,,,,3.6241327761143425,,,,,,29.159047124047703
1557947337727,0.0,,,,,,,,,
1557947337740,,,,,,,0.1999158412218094,,,
1557947337741,,,,,1.4317326545715332,-7.536946773529053,,,3.816220495903849,27.483450828572558
1557947337754,,,,5.568868013751973,,,,,,
1557947337764,,39.18647617978071,1136.259765625,,,,,,,
1557947337776,,,1133.3056640625,,,,,,,
1557947337804,,42.88164947511827,1133.3056640625,,,,,,,
1557947337834,,,,,,,-0.2693476974964142,,17.160467799063497,
1557947337835,,,,6.906846240788663,0.05267243832349777,-5.4252610206604,,1000.3299560546875,,25.816467862464783
1557947337844,,37.7719312534509,1133.3056640625,,,,,,,
1557947337853,,,724.1748046875,,,,,,,
1557947337884,,37.90391246449471,724.1748046875,,,,,,,
