timestamp,AccX,BrightnessEV,LinearAccelerometerSensor,AccY,AccZ,BarometerSensor,CompassSensor,MagneticRotationSensor,PitchSensor,DecibelSource
1557947873716,0.5001100158691406,-2.9444221597195894,0.08773163404095609,2.1260289001464843,9.825567626953125,997.5648498535156,320.7566833496094,41.23512019572779,0.0,24.313637641589875
1557947873739,0.8183482360839844,-2.9862423354142167,0.1465807197455451,1.979333953857422,9.267677764892579,997.5648498535156,322.7200927734375,41.23511468262232,0.0,21.03803720955957
1557947874172,0.8054750061035156,-3.073705176664556,0.17786023775765275,1.3030403137207032,9.255403289794922,997.5648498535156,326.2455139160156,38.453108286454494,0.0,27.558748556724915
1557947874419,0.31449600219726564,-3.0964252531646395,0.2793485306712332,2.9690757751464845,9.692793731689454,997.5648498535156,336.3737487792969,38.4531526387249,0.0,23.324384599156055
1557947874456,-0.5116360473632813,-3.0964252531646395,0.32465113182849115,1.9580781555175781,9.650282135009766,997.5648498535156,339.5123291015625,38.45314971804967,0.0,23.424226808222063
1557947874530,-0.918340301513672,-3.1429678391016695,0.49921800169886854,1.105151824951172,10.601853332519532,997.5648498535156,339.5123291015625,38.45315355415085,0.0,24.94154594018443
1557947874593,-0.32332763671875003,-3.1195088662776804,0.12477821993534877,1.6102015686035156,10.74929672241211,997.5648498535156,339.5123291015625,39.89273706418913,0.0,23.283796034387375
1557947874657,0.4052073669433594,-3.1195088662776804,0.4094619834482605,1.6732205200195314,9.308842163085938,997.5648498535156,339.5123291015625,39.892734425397435,0.0,25.634810853944106
1557947874731,0.7120692443847657,-3.1195088662776804,0.28377796805550176,1.7019607543945314,8.702602844238282,997.5652313232422,339.5123291015625,39.89273546157762,0.0,23.46352974450639
1557947874793,-0.5029541015625,-2.923958057159874,0.3334984099004594,2.1848565673828126,8.668922882080079,997.5652313232422,339.5123291015625,39.892733324665734,0.0,27.76701183988411
1557947874857,-0.9030720520019532,-2.82577766322097,0.35452385257490254,3.476221160888672,8.752898254394532,997.5652313232422,337.5797119140625,40.288870278150505,0.0,27.781512503836435
1557947874930,0.7723937988281251,-2.581852080334881,0.5908489903125582,2.8596533203125003,10.281070404052734,997.5652313232422,336.1061096191406,40.28887373095281,0.0,29.400181550076635
1557947874993,0.21315673828125,-2.6986657453176313,0.2823207357237107,2.7078689575195316,8.813372497558595,997.5652313232422,332.19171142578125,40.28887551709757,0.0,24.913616938342727
1557947875057,0.4110452270507813,-2.614273558027259,0.3502312124728658,1.5184423828125,9.465416564941407,997.5652313232422,332.19171142578125,40.288874466988595,0.0,25.211380837040362
1557947875128,1.7371376037597657,-2.664314240526854,0.4542938741637896,2.5283921813964847,10.247390441894531,997.5652313232422,335.9682312011719,40.6374664236081,0.0,23.69215857410143
1557947875190,-0.18142272949218752,-2.82577766322097,0.7104466304402413,1.0770103454589843,12.036919097900391,997.5652313232422,338.7427673339844,40.63746501940771,0.0,39.304395947667004
1557947875258,2.294279022216797,-2.664314240526854,1.3313115638385624,4.418511657714844,7.682025146484375,997.5652313232422,337.28607177734375,40.637465315260314,,25.010592622177516
1557947875329,2.149679718017578,-2.503849568333608,0.2128155752453071,3.6467166137695313,9.303004302978517,997.5652313232422,345.9031982421875,40.63746569772481,,24.29752280002408
1557947875392,2.083068237304688,-2.2923454631398963,0.4488923247156028,4.553530883789063,7.66645751953125,997.5652313232422,348.1382751464844,40.63746487577893,0.0,25.50228353055094
1557947875457,3.583697662353516,-2.30552085188763,0.5712969325652819,4.929548950195313,7.331753540039063,997.5652313232422,346.29766845703125,40.63746535497597,0.0,21.78976947293169
1557947875530,2.137405242919922,-2.4298489868898314,0.7519325413925108,5.890251159667969,4.728966064453125,997.5652313232422,345.28912353515625,40.6374669268957,0.0,24.06540180433955
1557947875594,3.6217185974121096,-2.8838806177845386,0.8117767373685573,6.850803680419922,2.5771907043457034,997.5652313232422,339.07489013671875,40.63746609945487,0.0,28.65103974641128
1557947875657,4.768184509277344,-3.029311057306103,0.9325783754326167,6.882088623046875,-0.12888198852539062,997.5652313232422,335.2183532714844,40.63746652541533,0.0,24.517864355242903
1557947875726,4.840933227539063,-3.1910621273027147,0.342110463242935,6.891668701171875,-0.5679190063476562,997.5652313232422,335.2183532714844,40.6374672479241,0.0,26.522463410033232
1557947875793,4.347858581542969,-3.1668145810560375,0.29300114791986726,6.732998657226563,0.8545729064941406,997.5652313232422,333.36859130859375,40.63746836827564,0.0,32.71609301378832
1557947875857,3.0455667114257814,-3.1668145810560375,0.7226754162142571,9.764794006347657,1.0361453247070314,997.5652313232422,332.177978515625,40.637466612590366,,29.907826918031375
1557947875930,7.0927006530761725,-3.0964252531646395,1.1669514589418528,11.109148406982422,-0.4866380310058594,997.5652313232422,319.1634826660156,40.637468076721326,0.0,28.142475957319203
1557947875993,8.026907958984376,-2.9862423354142167,0.5601941646228962,10.321486358642579,-1.3747412109375001,997.5652313232422,311.3392028808594,40.63746942398778,0.0,27.788744720027395
1557947876057,6.0784098815917975,-2.9444221597195894,1.2450386197119443,6.410868530273437,-3.705843658447266,997.5652313232422,306.72271728515625,40.63747078708942,0.0,28.135809885681915
1557947876128,5.142555999755859,-2.82577766322097,0.7973886886339496,4.502786407470703,-2.7678941345214847,997.5652313232422,299.22613525390625,40.63747080977146,0.0,27.151673578484576
1557947876193,5.0834289550781255,-2.6986657453176313,0.4481867468257646,4.106111297607422,-4.182302856445313,997.5652313232422,283.20819091796875,40.63747099057238,0.0,25.538830266438744
1557947876257,6.281986541748047,-2.597971745698158,0.31414514020876816,3.9377114868164065,-4.249962158203125,997.5652313232422,271.79632568359375,40.637469716627905,0.0,25.82063362911709
1557947876330,6.183042297363282,-2.550143220607543,0.19536526122690354,4.122127990722657,-4.906796264648437,997.5652313232422,268.13287353515625,40.6374692710235,0.0,29.469432706978257
1557947876391,7.559430084228516,-2.5345463655565243,0.40801128960704136,4.512965240478516,-5.45151351928711,997.5652313232422,267.0000305175781,41.212855270563225,0.0,29.614210940664485
1557947876457,11.707005157470704,-2.5345463655565243,1.1328747080023711,4.111799468994141,-5.719456329345704,997.5652313232422,268.36676025390625,41.212855709490746,0.0,30.644579892269185
1557947876530,10.614726562500001,-2.581852080334881,0.2177819031125395,4.031416625976563,-4.74737777709961,997.5652313232422,268.36676025390625,41.21285506877089,0.0,31.734776434529945
1557947876593,8.594377899169922,-2.6813877538857955,0.6277407990528281,2.6325755310058594,-5.410648498535156,997.5652313232422,264.01715087890625,41.212856618005,0.0,31.476763242410986
1557947876657,6.362070007324219,-2.664314240526854,0.6927324050187402,2.611768798828125,-5.069807281494141,997.5652313232422,262.835693359375,41.212853918730694,0.0,29.429995933660408
1557947876729,6.21507568359375,-2.6307616808158274,0.508306321087658,2.460732879638672,-3.2876133728027344,997.5605773925781,261.81561279296875,42.40609509791765,0.0,26.93726948923647
1557947876793,9.116043090820312,-2.5191163249869186,0.9354765940864664,2.535128173828125,-6.345155181884766,997.5605773925781,257.2198181152344,42.40609791106931,0.0,31.501421618485587
1557947876857,8.317902832031251,-2.5191163249869186,0.5418241364599021,1.3991404724121095,-3.852239227294922,997.5605773925781,267.5916442871094,42.40609584389003,0.0,27.543483357110187
1557947876930,3.8703515625000002,-2.5191163249869186,1.1737278506196687,0.6734495544433594,-3.3307237243652343,997.5605773925781,274.2957763671875,42.406094323157504,0.0,33.727279408855956
1557947876992,5.3828063964843755,-2.614273558027259,0.8020631000636018,4.398453369140626,-5.147645416259766,997.5605773925781,270.6539001464844,42.40609390811855,0.0,31.577588860468637
1557947877057,10.126891021728516,-2.614273558027259,1.4061481967476948,5.855223999023438,-4.527634735107422,997.5605773925781,267.836181640625,42.406097178968366,0.0,32.52853030979893
1557947877127,9.571695556640625,-2.614273558027259,0.6412786980885645,6.2526475524902345,-6.80185546875,997.5605773925781,267.836181640625,42.406095405212554,,31.010593549081158
1557947877198,8.042176208496095,-2.581852080334881,0.38110130117544755,5.436993713378906,-5.836063842773438,997.5605773925781,267.836181640625,41.40063172127963,,33.188977146274866
1557947877258,6.024072875976563,-2.5659105364658594,0.6766006579372519,4.652475128173829,-4.983586578369141,997.5605773925781,270.92218017578125,41.40065796100696,52.1728515625,33.39053735709139
1557947877329,5.828729095458985,-2.664314240526854,0.4126296813403806,3.5286122131347657,-4.6976811218261725,997.5605773925781,269.9203186035156,41.40067341709913,41.904854910714285,31.889284837608535
1557947877390,5.665867767333984,-2.6813877538857955,0.203618898236173,3.6550991821289065,-4.324507141113282,997.5605773925781,268.2515869140625,41.400693138358335,0.0,27.450747915820575
1557947877457,5.304818572998047,-2.664314240526854,0.1173732089778754,3.929478607177735,-4.752018127441406,997.5605773925781,266.42144775390625,41.40071537894359,0.0,30.870712059065355
1557947877530,6.013295288085938,-2.751777081777194,0.2865744485382489,3.604354705810547,-5.589376831054688,997.5605773925781,266.42144775390625,41.40072723109551,0.0,30.72249897613515
1557947877593,6.627468109130859,-2.923958057159874,0.34745756157067426,3.385060729980469,-6.479425964355469,997.5605773925781,269.9706726074219,41.40075606894493,0.0,32.07365037469072
1557947877657,7.879165191650391,-2.965180719886387,0.3910807792897646,2.874173126220703,-6.061345367431641,997.5605773925781,274.908203125,41.400777634238636,0.0,30.580462303952814
1557947877728,9.941426696777345,-2.965180719886387,0.6086744123498556,3.0425729370117187,-5.864654388427734,997.5605773925781,272.25384521484375,41.40079790260373,0.0,31.80412632838324
1557947877792,10.740315399169923,-2.965180719886387,0.24472372660989322,2.992427215576172,-5.773044891357422,997.5605773925781,270.9866027832031,41.40081172352744,0.0,31.231980750319988
1557947877857,9.36781951904297,-3.0513373636361014,0.24242413501747864,2.586321716308594,-6.260281677246094,997.5605773925781,272.4776306152344,41.40083031648225,0.0,31.068705444786538
1557947877929,5.422174530029297,-3.073705176664556,1.1302303437303365,1.9676582336425783,-4.4387196350097655,997.5605773925781,276.39984130859375,41.40085778196228,0.0,31.05510184769974
1557947877992,6.480623474121094,-3.0964252531646395,0.26418770630926897,1.2326866149902345,-5.382357330322266,997.5605773925781,268.11785888671875,41.40088025040878,0.0,31.16939646550756
1557947878057,10.89015380859375,-3.1910621273027147,1.2460937436746922,3.4132022094726566,-6.491550750732422,997.5605773925781,258.2785949707031,41.400881625909015,0.0,31.4674801363064
1557947878129,6.364764404296875,-3.1429678391016695,1.413479265857145,-0.23082000732421876,-2.9728179931640626,997.5605773925781,265.5644226074219,44.94242077569047,0.0,33.13234291694724
1557947878193,7.340136108398438,-2.769924428487453,0.5768302568601857,1.499132537841797,-5.838458862304687,997.5605773925781,289.3619079589844,44.942439174194085,0.0,30.41392685158225
1557947878257,6.933731231689453,-2.30552085188763,0.3153411770424155,2.2167402648925782,-4.448150024414063,997.5605773925781,280.3526611328125,44.942451446423526,0.0,32.079035303860515
1557947878330,7.259753265380859,-2.253526214249368,0.8045524485216028,4.9404762268066404,-5.929319915771485,997.5605773925781,285.5116271972656,44.94247154633963,0.0,33.27358934386331
1557947878393,7.713908843994141,-2.2923454631398963,0.5217977091246072,5.981112213134766,-4.653373260498047,997.5605773925781,291.9670715332031,44.94250273617364,0.0,27.259116322950483
1557947878458,6.68928955078125,-2.3594596589984334,0.43474853623287074,7.0223469543457036,-4.7557603454589845,997.5605773925781,299.92413330078125,44.942516842923666,0.0,26.493348587121417
1557947878529,8.24650131225586,-2.415493693912761,0.4835255732294976,5.516179046630859,-5.611081695556641,997.5605773925781,293.4259948730469,44.942547299089625,0.0,25.289167002776548
1557947878596,6.2701611328125,-2.4589953325493474,0.7828984507962718,4.6702880859375,-2.990930328369141,997.5605773925781,298.7717590332031,44.94256751821955,0.0,29.86771734266245
1557947878658,5.940696258544922,-2.4887426759433997,0.3407171257320852,3.95896728515625,-3.027154998779297,997.5605773925781,307.23370361328125,44.94258274313798,0.0,29.35003151453655
1557947878729,4.947062530517578,-2.4887426759433997,0.3869121322066721,3.7618272399902346,-2.2704785156250002,997.5639343261719,309.65216064453125,44.942613883688715,0.0,27.831886910752573
1557947878791,6.035748596191406,-2.503849568333608,0.3342888553100125,4.682861938476563,-3.2036380004882816,997.5639343261719,310.89263916015625,44.9426231343474,0.0,32.88249225571986
1557947878857,5.347629547119141,-2.5191163249869186,0.4683683701598974,5.7350239562988286,-1.7241146850585938,997.5639343261719,319.10052490234375,44.94264201094301,0.0,35.76226137449605
1557947878929,6.473588104248047,-2.4589953325493474,0.49123137767538566,6.916217651367188,-1.2627740478515626,997.5639343261719,328.3914489746094,42.438382975882,,30.55378331375
1557947878991,10.283914489746094,-2.415493693912761,1.3640195381928284,8.114625549316406,1.8273999023437502,997.5639343261719,340.251953125,42.43841373261024,0.0,30.409976924234904
1557947879057,11.991563415527345,-2.3732654585234636,0.8111502551210398,8.10474609375,2.72792724609375,997.5639343261719,340.6912536621094,42.43843600328545,0.0,27.466341989375785
1557947879130,10.314900054931641,-2.3594596589984334,0.4719870983604612,6.183641052246094,2.5179139709472658,997.5639343261719,345.77813720703125,42.43844413310542,0.0,27.895807121644257
1557947879192,8.489146728515625,-2.3872046494813377,0.7357344037403901,5.131479034423829,1.1765533447265626,997.5639343261719,336.5390930175781,42.438464327229944,0.0,24.969296480732147
1557947879257,6.019582214355469,-2.3732654585234636,0.7998276432240874,3.9966888427734375,0.91729248046875,997.5639343261719,323.1548156738281,42.43848303417665,0.0,24.578818967339924
1557947879330,6.018085327148438,-2.345784722101357,0.3106453752996126,3.7749998474121096,1.5540682983398437,997.5639343261719,324.4438171386719,42.43850236096071,0.0,27.323937598229687
1557947879392,5.661377105712891,-2.332238190263409,0.1473769276161002,3.979324951171875,1.5094610595703126,997.5639343261719,326.9309997558594,42.438522938777446,0.0,28.58537197569639
1557947879457,6.162534942626953,-2.27928931031445,0.4831458468794127,4.817731475830079,3.1879206848144532,997.5639343261719,325.593505859375,42.43854031027931,0.0,27.634279935629372
1557947879530,6.827452239990235,-2.215724181536984,0.5502632827805232,5.656287689208985,4.544250183105469,997.5639343261719,324.0495910644531,42.43855710464277,0.0,27.007037171450193
1557947879592,8.29829360961914,-2.107920892002469,1.2209318365952702,7.525450744628906,8.16746566772461,997.5639343261719,322.66448974609375,42.438576251621406,0.0,25.751878449276614
1557947879657,8.248297576904298,-1.9138338398861665,0.76416665423319,8.27045150756836,9.902956695556641,997.5639343261719,320.35882568359375,42.43860792881653,0.0,25.95496221825574
1557947879729,7.237299957275391,-1.814617645932601,0.4585130243341858,6.601571960449219,8.380023651123047,997.5849151611328,321.7231140136719,42.43862804223093,0.0,28.567288903828825
1557947879794,4.492308197021485,-1.8511089531775922,1.5877700184064507,4.293371887207032,3.5760635375976566,997.5849151611328,323.2473449707031,42.43864644234581,0.0,27.774268223893117
1557947879857,4.499193878173829,-1.8750708353199623,0.4995626829048475,3.266507263183594,4.302203521728516,997.5849151611328,329.1982421875,41.75055084120699,0.0,26.201360549737576
1557947879930,3.2724948120117188,-1.8390744858344286,0.3591656193961691,3.9200482177734375,4.2608894348144535,997.5849151611328,323.8643493652344,41.750578862833095,0.0,28.87617300335736
1557947879991,2.561623077392578,-1.804416671256937,0.4724509166060555,4.427193603515625,5.762716369628906,997.5849151611328,333.755859375,41.75059528818287,0.0,30.44539760392411
1557947880057,2.235900421142578,-1.6999078418565936,0.4172203463701851,5.143005065917969,6.824608154296875,997.5849151611328,323.2292175292969,41.750605103969086,0.0,25.61101383649056
1557947880130,5.503455505371094,-1.6484919568274041,1.5575301202854632,5.43429931640625,11.818672943115235,997.5849151611328,315.1131286621094,41.75063645776669,0.0,27.33999286538387
1557947880193,5.667214965820313,-1.3928182559448645,0.3082685826094858,4.688400421142578,11.025173034667969,997.5849151611328,314.70086669921875,41.75065138516659,0.0,28.260748027008265
1557947880257,6.2562400817871096,-1.1890715874058164,0.28672829498189567,4.04039794921875,10.806028747558594,997.5849151611328,318.3841247558594,41.750661938777284,0.0,27.347998295888473
1557947880330,3.0864317321777346,-1.147966384076143,1.4492353212637648,4.455484771728516,5.8493861389160156,997.5849151611328,317.2404479980469,41.750661005162165,0.0,28.122446968003693
1557947880392,2.8560607910156253,-1.1849619277662968,0.38236995101016824,3.3799713134765628,6.499633941650391,997.5849151611328,317.2404479980469,41.7506599436064,0.0,23.364597338485297
1557947880457,2.806962890625,-1.1668145810560375,0.1462237941158125,3.2862661743164066,6.280639343261719,997.5849151611328,311.81695556640625,41.75066109594542,0.0,29.60946195733832
1557947880531,3.2221994018554687,-1.1941219270517731,0.26140794901971715,3.4548156738281253,7.357200622558594,997.5849151611328,309.318603515625,41.75066075850997,0.0,23.909351071033793
1557947880591,3.6607873535156252,-1.1941219270517731,0.28562942969272365,3.795956268310547,8.05968978881836,997.5849151611328,305.84619140625,41.75066071598558,0.0,36.617180576946595
1557947880657,2.7168502807617188,-1.1849619277662968,0.4500288522359399,4.625082092285156,9.13939453125,997.5849151611328,301.2951965332031,41.75066189790266,,34.30880946452891
1557947880731,5.300178222656251,-1.2219561352484984,1.8890714667875386,1.6757652282714846,15.375576324462891,997.6170349121094,301.2951965332031,41.75066268031844,47.197265625,33.340514403468916
1557947880791,3.5543586730957033,-1.1849619277662968,0.5122577251580125,4.012106781005859,12.426708526611328,997.6170349121094,298.2060241699219,41.75065843471491,47.197265625,30.576661039098294
1557947880857,2.3511607360839846,-1.3491913235446065,0.8104037013714306,3.0981074523925782,9.890083465576172,997.6170349121094,293.3023376464844,41.750662355533834,0.0,29.29929560084588
1557947880932,2.003284149169922,-1.3389955564387177,0.6121208024348037,2.855911102294922,8.304131469726563,997.6170349121094,284.5211181640625,41.750663079311856,0.0,26.45422269349092
1557947880992,1.7561480712890627,-1.3288713391650104,0.3672605205037202,2.4242088317871096,7.579937438964844,997.6170349121094,279.5688171386719,41.750661727740564,0.0,24.885507165004444
1557947881057,1.9116746520996095,-1.3907105929828734,0.06998758114991455,2.8065138244628907,7.7865078735351565,997.6170349121094,274.1398010253906,41.750658274125215,0.0,24.45604203273598
1557947881129,2.362537078857422,-1.3907105929828734,0.2666007139294366,2.9271629333496096,8.759185180664064,997.6170349121094,269.4913024902344,41.750661676230344,0.0,26.273658565927324
1557947881191,3.049757995605469,-1.3698016032198925,0.3917461515266221,3.065325622558594,9.567055206298829,997.6170349121094,265.28924560546875,40.74407099139291,0.0,25.70542939881897
1557947881257,3.5985168457031254,-1.259923985447519,0.3169996440443497,4.255949707031251,9.674831085205078,997.6170349121094,253.6913604736328,40.74407078748347,0.0,31.192558892779367
1557947881330,3.539988555908203,-1.1400145217123225,0.279322894228842,3.1102322387695316,10.523416442871094,997.6170349121094,247.65499877929688,40.744067714011805,0.0,29.758911364017926
1557947881391,3.648512878417969,-1.0964252531646397,0.6288046646989427,2.6637107849121096,7.866591339111329,997.6170349121094,242.37583923339844,40.744069113806134,0.0,26.570558528571038
1557947881457,4.202959899902344,-0.9730428376593575,0.2987013433873673,1.9378701782226564,9.029373321533203,997.6170349121094,237.11306762695312,40.744068788207095,0.0,27.795964912578242
1557947881532,3.3822166442871096,-0.9341538242657627,0.21980594224893027,2.0686981201171877,8.179141387939454,997.6170349121094,231.5752410888672,40.74407217467487,0.0,26.893088591236204
1557947881590,3.540736999511719,-0.9113138479076514,0.14681009298355416,2.7027795410156252,8.206684112548828,997.6170349121094,225.74270629882812,40.74406769804362,0.0,25.78639209968072
1557947881656,3.210074615478516,-0.85938605586379,0.2673765304908528,2.5057891845703124,9.263935546875,997.6170349121094,215.69369506835938,40.74406897176436,0.0,25.69373909615046
1557947881728,3.7911662292480472,-0.8019851670992082,0.17808997650930586,2.446063385009766,8.58809097290039,997.6504516601562,208.84130859375,40.74406823390986,0.0,25.774917998372256
1557947881791,4.77611801147461,-0.795845737554291,0.3281402554467094,2.6015899658203128,7.949069824218751,997.6504516601562,200.32078552246094,40.74406785768022,0.0,25.751878449276614
1557947881857,4.673581237792969,-0.7346542294862562,0.16175629661503893,3.151396636962891,7.910150756835938,997.6504516601562,194.21762084960938,40.744070078550855,0.0,31.96728722623287
1557947881930,4.027824096679688,-0.7066570324501494,0.16435345319138292,2.7430458068847656,7.926017761230469,997.6504516601562,187.69134521484375,40.74407273810711,0.0,31.35768514567822
1557947881990,5.043013000488282,-0.6998485656053418,0.5293203735035668,3.576512603759766,9.820328521728516,997.6504516601562,184.68453979492188,40.74407051076939,0.0,30.50379756261458
1557947882057,4.48871566772461,-0.5057279030704773,0.301529158517559,2.211950225830078,10.155780944824219,997.6504516601562,181.3729248046875,40.744071704397086,0.0,24.99687082618404
1557947882129,3.1165191650390627,-0.3914370255465039,0.5494529361711871,1.9467018127441407,8.312364349365234,997.6504516601562,173.68215942382812,40.74407104605654,0.0,26.19093330626743
1557947882194,4.848866729736328,-0.3485942556881811,0.508702568663452,1.6720230102539064,10.246192932128906,997.6504516601562,166.9281463623047,40.744070991654276,0.0,28.318697742805018
1557947882257,5.354215850830078,-0.17476434560039916,0.24359135838578538,1.325643310546875,9.768536224365235,997.6504516601562,159.76470947265625,40.74407157756374,0.0,25.2244423350632
1557947882331,4.684358825683594,-0.12368912066144751,0.5754289857252305,1.4241384887695314,7.543114013671875,997.6504516601562,153.7576446533203,40.74407191318808,0.0,27.37987326333431
1557947882390,4.0571630859375,-0.11980142069444709,0.39593559363989744,1.6398399353027344,6.723717956542969,997.6504516601562,148.79823303222656,40.74406981399501,0.0,28.29303772831025
1557947882456,3.4706826782226563,-0.18141661852639301,0.32082377648366295,1.9341279602050783,6.104904785156251,997.6504516601562,144.67306518554688,40.744071312085325,0.0,27.686381012476144
1557947882529,3.942351837158203,-0.17273750682224778,0.17431503804463866,2.202220458984375,5.919590148925781,997.6504516601562,143.56112670898438,40.74407018537545,0.0,27.686381012476144
1557947882590,3.569776611328125,-0.12890033814649163,0.15051160426017,2.6325755310058594,5.983058166503906,997.6504516601562,143.56112670898438,40.74407014752287,0.0,27.12649701627211
1557947882658,4.434228973388672,-0.08992184774869688,0.3272382969604127,3.1906150817871097,6.760391693115235,997.6504516601562,142.45046997070312,40.74407239460346,0.0,26.9810054562339
1557947882727,4.4015968322753904,-0.11038595030841244,0.7630039176043953,4.385729827880859,9.287586364746094,997.6786804199219,144.03778076171875,40.74407020272038,0.0,27.708520116421443
1557947882790,6.311924285888672,-0.1311445104752098,1.0416546971786496,3.4479299926757814,12.23944793701172,997.6786804199219,145.10418701171875,40.744068706429225,0.0,25.622928644564745
1557947882857,7.092401275634766,-0.23217443070645447,0.3659033495436049,2.870131530761719,11.258986816406251,997.6786804199219,148.66432189941406,40.744068562535816,0.0,30.726174765452363
1557947882928,7.924820251464844,-0.2623890437534625,0.3512821022056092,2.6027874755859375,11.948902130126953,997.6786804199219,148.66432189941406,40.7440722633756,0.0,25.943925503754265
1557947882990,4.624333648681641,-0.27773700808689833,1.5797987097423902,3.123853912353516,6.2414208984375,997.6786804199219,147.23727416992188,40.74406773664074,0.0,29.768083373380662
1557947883057,3.1189141845703126,-0.5578449272796336,0.7500515675232675,2.8093579101562502,5.663023681640626,997.6786804199219,143.52867126464844,40.74407088769295,0.0,27.81755374652469
1557947883128,2.9831465148925784,-0.6054629475123734,0.4537316845520698,2.501897277832031,4.518803100585938,997.6786804199219,141.6058349609375,40.744068963655394,0.0,24.78566495593843
1557947883191,2.1894969177246093,-0.6249591231381707,0.288808485704257,2.135908355712891,5.408702545166016,997.6786804199219,140.11627197265625,40.744071465650784,0.0,22.30448921378274
1557947883257,2.831511840820313,-0.6748843484698527,0.2552487842215345,3.2257919311523438,5.3402947998046875,997.6786804199219,138.74569702148438,40.7440713354062,0.0,25.06505032404872
1557947883330,3.5447785949707034,-0.5117485126901797,1.1843851237488168,2.777025146484375,9.98962646484375,997.6786804199219,138.74569702148438,40.744070682282725,,42.27243781503063
1557947883390,3.4051190185546876,-0.406778953088637,1.1286036891144713,3.775448913574219,13.238021392822267,997.6786804199219,138.74569702148438,40.74407010198142,,31.547282074401558
1557947883456,3.8037400817871094,-0.4847814650899104,0.8700761749769343,1.5081138610839844,14.930102691650392,997.6786804199219,137.25595092773438,40.744070922644234,42.1484375,30.44147620878723
1557947883529,4.356390838623047,-0.6249591231381707,0.4838920512746716,0.6619235229492187,13.013638000488282,997.6786804199219,133.841064453125,40.74407067798081,0.0,33.07282047033346
1557947883595,5.463488616943359,-0.5392292491122866,1.788489857970301,0.38470001220703126,6.304888916015625,997.6786804199219,131.90260314941406,40.74406867408182,0.0,30.856472882968564
1557947883657,4.7485752868652344,-0.42375203169235054,0.750792201454937,-0.08876541137695312,5.148244171142578,997.6786804199219,126.35595703125,40.74407255192018,,26.159500516564012
1557947883728,4.067641296386719,-0.5300107190829081,0.8649946614079216,0.0335302734375,2.505040740966797,997.6999664306641,119.64999389648438,40.744072130850554,0.0,28.93206753059848
1557947883790,5.900729370117188,-1.7000245685409985,0.5804843330585675,1.3247451782226562,4.3788441467285155,997.6999664306641,112.88834381103516,40.74407132288692,0.0,24.955443375464483
1557947883857,7.939340057373047,-3.1033116387498794,1.052556673039621,2.206711120605469,7.328310699462891,997.6999664306641,98.95140838623047,40.744071417080185,0.0,28.50033257689769
1557947883929,14.058165893554689,-3.13475010300442,1.9829135015708959,5.212909698486328,7.243137817382813,997.6999664306641,84.07415008544922,40.744071044068214,0.0,29.036325160842374
1557947883990,13.30957260131836,-2.903780175222243,1.5401481605980247,2.655028839111328,1.6305592346191407,997.6999664306641,70.94932556152344,40.744073070804255,0.0,33.07067950661298
1557947884057,14.896871795654297,-3.903780175222243,1.2861914938719408,-0.47256729125976565,0.06331832885742188,997.6999664306641,60.88824462890625,40.7440766716374,0.0,29.273703630390237
1557947884127,8.76382553100586,-5.751777081777194,1.7555781737706517,-3.28357177734375,-0.9624984741210938,997.6999664306641,54.99782180786133,40.74407407519119,0.0,31.64352855784437
1557947884192,7.159910888671876,-7.073705176664556,1.6775774297050816,-6.874604187011719,3.398233337402344,997.6999664306641,53.368343353271484,40.744074142368554,0.0,30.008677215312268
1557947884257,5.623805236816406,-7.073705176664556,1.3939563761305025,-1.8247055053710939,-0.8219407653808594,997.6999664306641,48.90386962890625,40.7440768384493,0.0,32.34517283512687
1557947884328,0.055085449218750006,-7.073705176664556,3.45748266289388,-14.942377166748047,-2.5036935424804687,997.6999664306641,43.15821838378906,40.744075770903805,0.0,39.49243590568265
1557947884392,9.511670379638673,-7.073705176664556,3.3239757939855825,-1.783092041015625,1.5142510986328126,997.6999664306641,39.3036003112793,40.74407538280521,,30.285712526925373
1557947884456,7.972121887207032,-7.073705176664556,0.3269557692253259,-3.1166688537597658,0.37931121826171876,997.6999664306641,38.40861511230469,40.7440759565868,199.239990234375,30.580462303952814
1557947884527,9.38413558959961,-7.073705176664556,0.5772461937333239,-4.6571154785156255,1.6649876403808594,997.6999664306641,40.384857177734375,40.74407606078819,0.0,30.610753236297917
1557947884590,11.918814697265626,-7.073705176664556,1.1518654308891474,-0.9551637268066406,2.468965759277344,997.6999664306641,46.991249084472656,40.744076725372544,0.0,31.482940974347457
1557947884657,11.041788482666016,-4.4887426759434,0.9318770917506315,-4.768783264160157,4.445305938720703,997.6999664306641,52.88911437988281,40.744075770427806,,29.938769149412114
1557947884729,7.712262268066406,-5.073705176664556,0.894509917682691,-3.6546501159667972,5.035079498291016,997.7179718017578,57.9549446105957,40.74407735279914,40.7958984375,36.84755622108624
1557947884790,3.953877868652344,-5.073705176664556,1.9615219187028403,-2.9295579528808595,-1.5564633178710938,997.7179718017578,52.41686248779297,40.74407506442839,40.7958984375,31.844074854123203
1557947884857,4.268224182128907,-4.4887426759434,0.3932592451855724,-1.8143769836425783,0.204774169921875,997.7179718017578,49.45823669433594,40.744075006237104,28.0126953125,35.62530768862261
1557947884927,2.6173072814941407,-5.751777081777194,0.66353740905039,-1.1984078979492188,1.651365966796875,997.7179718017578,57.16223907470703,40.74407403829807,,50.79278951314623
1557947884990,20.78682357788086,-6.073705176664556,4.8790686816306605,3.0898745727539065,-3.4661920166015627,997.7179718017578,62.7982177734375,40.74407607266183,,55.2055951125252
1557947885057,11.6829052734375,-7.073705176664556,1.1800598531571194,-3.0518536376953125,-3.798351287841797,997.7179718017578,49.395694732666016,40.744078471951305,36.337890625,43.23355245756284
1557947885128,16.578923950195314,-7.073705176664556,1.293751962168888,-1.2998968505859376,-5.742957458496094,997.7179718017578,47.269920349121094,40.74407725873343,29.8876953125,43.676354197905106
1557947885191,8.225993957519531,-7.073705176664556,2.046637172134437,-2.7997778320312503,-2.638862457275391,997.7179718017578,44.22340393066406,40.74407740243026,30.1416015625,37.572441510219704
1557947885257,7.863447875976563,-7.073705176664556,1.0499430707032211,0.00209564208984375,-0.5168751525878906,997.7179718017578,44.22340393066406,40.744076374098334,30.1416015625,42.31928110074086
1557947885328,6.209237823486329,-7.073705176664556,0.7911106344639423,-2.823578338623047,-1.20948486328125,997.7179718017578,44.22340393066406,40.744073258978545,43.984375,45.41853711181646
1557947885389,6.585704956054688,-7.073705176664556,0.3838542058715043,-1.5148498535156252,-2.542462921142578,997.7179718017578,44.22340393066406,40.744075861338494,56.15234375,41.77103432436536
1557947885456,8.595126342773439,-7.073705176664556,0.749384343865374,0.5528004455566407,-2.4218138122558597,997.7179718017578,44.34573745727539,40.74407607121535,56.15234375,31.85258765296585
1557947885527,8.881331176757813,-7.073705176664556,0.6130108096059067,-1.7723144531250001,-1.482367401123047,997.7179718017578,44.34573745727539,40.744075360642654,31.6845703125,30.128372247051725
1557947885590,10.157876586914062,-7.073705176664556,0.40561225425903186,-1.077908477783203,-1.289718017578125,997.7179718017578,43.07021713256836,40.74407455628078,0.0,35.06910725551518
1557947885657,11.05017105102539,-7.073705176664556,2.0536328348125608,4.996160430908203,3.8338275146484375,997.7179718017578,46.517242431640625,40.74407632905411,,41.504186944792984
1557947885728,15.294744415283203,-7.073705176664556,1.4029793089134845,0.17483642578125,2.388582916259766,997.7342224121094,49.014225006103516,40.7440732089864,,31.089031276673133
1557947885790,9.222172393798829,-7.073705176664556,1.4366027616023807,0.9839039611816407,-0.5246589660644532,997.7342224121094,36.24213409423828,40.74407450242097,94.560546875,25.263392773898442
1557947885857,8.953181762695312,-7.073705176664556,0.45198766064159734,1.738634490966797,0.8798703002929688,997.7342224121094,33.98875427246094,40.744077426112995,0.0,28.567288903828825
1557947885929,6.894363098144532,-7.073705176664556,0.7562464205292031,-0.0676593017578125,-0.06556365966796876,997.7342224121094,35.38030242919922,40.74407466091728,0.0,30.153597554092144
1557947885991,6.9253486633300785,-7.073705176664556,0.47289140850082734,2.029479675292969,-0.48693740844726563,997.7342224121094,35.38030242919922,40.74407905915451,0.0,27.363965022766426
1557947886057,8.872200164794922,-7.073705176664556,0.4526763708381339,1.4380595397949218,-0.3718267822265625,997.7342224121094,35.38030242919922,40.74407761532282,0.0,26.37489729512511
1557947886128,12.810809783935548,-7.073705176664556,1.1709335665930811,0.27033782958984376,0.7372169494628906,997.7342224121094,35.38030242919922,40.7440746231228,0.0,28.561244442423003
1557947886192,12.711117095947266,-7.073705176664556,0.9914561710539843,-3.1687605285644533,1.3187576293945313,997.7342224121094,36.42837142944336,40.74407735361555,0.0,25.440680443502757
1557947886257,14.801969146728517,-7.073705176664556,0.6212861801807719,-0.760269012451172,1.1311976623535156,997.7342224121094,38.00853729248047,40.74407537020401,0.0,34.73048805088538
1557947886331,8.70784194946289,-7.073705176664556,1.4449746909870425,-0.5155279541015625,2.4909700012207034,997.7342224121094,36.874168395996094,40.74407713002548,,27.05007959333336
1557947886390,7.737859039306641,-7.073705176664556,0.6481632501524375,-1.0240205383300782,1.0738668823242188,997.7342224121094,36.874168395996094,40.74407441576783,0.0,26.893088591236204
1557947886457,6.240522766113282,-7.073705176664556,0.7323489824435125,-0.11840377807617188,-0.5336402893066406,997.7342224121094,34.72564697265625,40.744073619459556,0.0,23.180633349627616
1557947886528,8.077951812744141,-7.073705176664556,0.6081420474098397,-1.071771240234375,-1.970951385498047,997.7342224121094,31.184642791748047,40.74407304818322,0.0,28.62727528317975
1557947886590,7.4378828430175785,-7.073705176664556,0.13849149751100784,-0.718505859375,-1.0677296447753908,997.7342224121094,32.26674270629883,40.74407585616243,0.0,28.048206787211623
1557947886657,9.32336196899414,-7.073705176664556,0.5190882776676061,-0.002544708251953125,-0.4896318054199219,997.7342224121094,34.263160705566406,40.7440767943433,0.0,26.884198220027105
1557947886728,11.868519287109375,-7.073705176664556,0.9617419909873787,0.13217514038085937,0.9557624816894532,997.7574920654297,34.263160705566406,40.744076590167666,0.0,27.024305364455255
1557947886790,13.468991088867188,-7.073705176664556,1.9396505022578248,3.8739440917968753,7.46093490600586,997.7574920654297,38.90413284301758,40.74407414871312,0.0,32.6054837263698
1557947886857,12.920980682373047,-7.073705176664556,1.542890457735191,0.9268725585937501,0.037272491455078126,997.7574920654297,38.65516662597656,40.744077325327304,0.0,29.425041061680805
1557947886928,9.255852355957032,-7.073705176664556,0.800217013327389,0.5890251159667969,1.521885223388672,997.7574920654297,35.04203796386719,40.74407655952836,0.0,24.814426285023053
1557947886990,5.9303677368164065,-7.073705176664556,1.2043806385364135,1.548380126953125,0.7598199462890626,997.7574920654297,35.04203796386719,40.74407577299879,0.0,27.581546219673896
1557947887057,7.680378570556641,-7.073705176664556,0.25090790598289536,0.5236111450195313,0.8922944641113282,997.7574920654297,33.93063735961914,40.74407597723277,0.0,25.19827993775719
1557947887128,8.007298736572267,-7.073705176664556,0.7726791080322439,2.335892486572266,-1.4768289184570313,997.7574920654297,31.39780616760254,40.74407683919733,0.0,28.86490725172482
1557947887190,10.275681610107423,-7.073705176664556,0.8797450009542039,4.516408081054688,-0.9006770324707032,997.7574920654297,29.77686309814453,40.74407617003576,0.0,31.03803720955957
1557947887257,13.574970703125,-7.073705176664556,1.9541310593792092,-2.5533901977539064,1.2205618286132813,997.7574920654297,30.9244441986084,40.744077157148226,0.0,30.972573096934198
1557947887328,12.117152252197267,-7.073705176664556,0.7236699407634323,-2.835553436279297,2.821482696533203,997.7574920654297,29.75738525390625,40.744077608994694,0.0,30.366288953621613
1557947887390,11.391611022949219,-7.073705176664556,0.9959651024990399,0.8352630615234375,0.06780899047851563,997.7574920654297,26.93486785888672,40.744072349782265,0.0,28.175653695597806
1557947887457,9.069190521240234,-7.073705176664556,0.6805440017449699,0.05014572143554688,-0.3718267822265625,997.7574920654297,21.884868621826172,40.744074465803706,0.0,23.30413773349191
1557947887527,6.472240905761719,-7.073705176664556,0.870341497736515,-0.39532791137695317,1.0969189453125001,997.7574920654297,19.00514793395996,40.74407628954796,0.0,30.542299098633976
1557947887590,8.38825653076172,-7.073705176664556,0.7968959273837573,-1.3943504333496095,-1.9832258605957032,997.7574920654297,15.331564903259277,40.74407461820341,0.0,30.39414119176137
1557947887657,9.861941986083984,-7.073705176664556,0.4859664462149073,-0.5665718078613281,-2.0874092102050783,997.7574920654297,9.862274169921875,40.7440753461165,0.0,30.17450729510536
1557947887730,7.6351725769042975,-7.073705176664556,0.6415895121746299,0.7749385070800782,-2.864293670654297,997.7976226806641,9.862274169921875,40.744072725031415,0.0,29.068735347220702
1557947887790,9.314829711914063,-7.073705176664556,0.6083125264787994,-0.26689498901367187,-4.578229522705079,997.7976226806641,8.620645523071289,40.7440762296303,0.0,32.85107029566812
1557947887857,14.556329956054688,-7.073705176664556,3.0172766034493734,0.09041198730468751,6.634503479003906,997.7976226806641,10.298290252685547,40.744077818008634,0.0,41.57305630327966
1557947887928,12.479398956298828,-6.4887426759434,1.9601581646423674,3.6265086364746097,8.433761901855469,997.7976226806641,7.214422702789307,40.744077397141695,,32.301933788690455
1557947888014,9.819729766845704,-7.073705176664556,2.1815707911641127,0.06676116943359375,0.2734812927246094,997.7976226806641,1.4029064178466797,40.7440755788071,30.60546875,29.91226075692495
1557947888057,8.81457000732422,-7.073705176664556,0.39912275713270295,1.5962805175781252,1.7277072143554688,997.7976226806641,359.88525390625,40.7440730825339,0.0,32.814878879400815
1557947888129,7.009623413085938,-7.073705176664556,0.7373168034091108,-0.034129028320312504,0.7852670288085938,997.7976226806641,359.88525390625,40.74407448154416,0.0,26.180480967120925
1557947888190,7.961943054199219,-7.073705176664556,0.24588294477524392,1.6862434387207033,0.26614654541015625,997.7976226806641,355.8582763671875,40.74407489339215,0.0,27.686381012476144
1557947888257,10.995235290527344,-7.073705176664556,0.7885415632373224,0.6234535217285156,0.11945159912109375,997.7976226806641,356.1739501953125,40.74407612335359,0.0,31.248301494138595
1557947888333,9.826615447998048,-7.073705176664556,0.802463987978984,3.6946170043945314,-0.6309379577636719,997.7976226806641,353.9629821777344,40.74407446285959,0.0,28.394780473741985
1557947888391,13.578862609863283,-7.073705176664556,0.9195915536595359,3.258274383544922,-0.18935623168945315,997.7976226806641,351.6798095703125,40.74407856283234,0.0,32.02488317060094
1557947888457,7.949818267822266,-7.073705176664556,1.7686340490967651,-0.6093827819824219,4.284839630126953,997.7976226806641,351.90740966796875,40.74407701172757,,37.60573253944394
1557947888529,5.399122467041016,-6.751777081777194,1.2718197920461158,-1.8673667907714844,4.841382293701172,997.7976226806641,344.9366760253906,40.74407437100773,72.5537109375,32.61262868792493
1557947888618,12.298125915527345,-7.073705176664556,1.9365677062912339,0.9671388244628907,-0.06197113037109375,997.7976226806641,334.7038879394531,40.74407646835968,,36.09274172404588
1557947888657,7.291936340332032,-7.073705176664556,0.9458032800021531,-0.1531315612792969,2.3233186340332033,997.7976226806641,324.27587890625,40.744072552605104,,29.400181550076635
1557947888729,8.849597167968751,-7.073705176664556,0.9508006596692934,-1.6673826599121095,5.317841491699219,997.8471374511719,315.355224609375,40.74407141013438,0.0,33.306166672944386
1557947888790,8.496780853271485,-7.073705176664556,0.5615898878242098,-2.454745330810547,2.5653652954101562,997.8471374511719,305.05780029296875,40.74407462879625,0.0,30.4883008652835
1557947888857,8.882678375244142,-7.073705176664556,0.35988693269532646,-1.2412188720703126,1.7239649963378907,997.8471374511719,296.4624938964844,40.74407342054313,0.0,27.007037171450193
1557947888928,10.677745513916015,-7.073705176664556,0.9760886119620169,1.2067904663085938,0.4724176025390625,997.8471374511719,291.34429931640625,40.74407532336083,0.0,25.010592622177516
1557947888990,10.008337554931641,-7.073705176664556,0.13864554344953564,-0.041613464355468754,0.7011419677734375,997.8471374511719,287.3554992675781,40.74407565104042,0.0,28.413594704548547
1557947889057,14.140794067382814,-7.073705176664556,1.6839298807147758,-4.838987274169922,2.8635452270507815,997.8471374511719,278.3376159667969,40.74407315398398,0.0,33.3665982345442
1557947889128,5.656587066650391,-7.073705176664556,2.52833600257948,3.1717543029785156,3.1054421997070314,997.8471374511719,276.4981689453125,40.74407147006682,0.0,27.723217067229196
1557947889191,9.043743438720703,-7.073705176664556,0.861202317058827,0.7997868347167969,5.928122406005859,997.8471374511719,273.1394348144531,40.74407405139224,0.0,29.16453948549925
1557947889257,11.53486312866211,-7.073705176664556,1.098390311268021,-0.525706787109375,2.2842498779296876,997.8471374511719,265.0973815917969,40.744072371491214,0.0,31.241780554746754
1557947889329,7.99697021484375,-7.073705176664556,0.7818812133909634,0.5176235961914063,4.109703826904297,997.8471374511719,261.06829833984375,40.744076421650924,0.0,27.024305364455255
1557947889390,7.939040679931641,-7.073705176664556,0.2463545169942225,-0.10972183227539063,3.383863220214844,997.8471374511719,257.6171569824219,40.74407210674654,0.0,27.810369386211317
1557947889457,9.28833480834961,-7.073705176664556,0.571437424565308,1.1283535766601562,1.8823356628417969,997.8471374511719,254.5757293701172,40.74407108028312,0.0,25.670263661590603
1557947889528,10.473420410156251,-7.073705176664556,0.4553096592462417,0.7551795959472657,1.2210108947753906,997.8471374511719,254.5757293701172,51.651313368161006,0.0,28.463371121298053
1557947889590,9.727970581054688,-7.073705176664556,0.3027783659906788,2.2243743896484376,1.5831079101562502,997.8471374511719,254.5757293701172,51.65131255517509,0.0,28.40106094456758
1557947889657,10.176288299560547,-7.073705176664556,0.21687339456932675,2.1839584350585937,1.0295590209960939,997.8471374511719,254.5757293701172,51.6513154582629,0.0,26.009728956867484
1557947889732,11.998449096679687,-7.073705176664556,0.5143079033260934,2.480940856933594,1.753154296875,997.8909301757812,256.03082275390625,51.65131384020943,0.0,27.730546933642625
1557947889790,8.993897094726563,-7.073705176664556,1.2963586491681176,-1.5419435119628908,3.885919189453125,997.8909301757812,256.03082275390625,51.651311868882495,0.0,31.03119253545714
1557947889857,5.412145385742188,-7.073705176664556,1.1685361841606987,-2.319127349853516,4.324656829833985,997.8909301757812,249.2358856201172,51.65131373747313,0.0,27.14329759745233
1557947889928,12.694501647949219,-7.073705176664556,1.600465135522381,-0.405955810546875,4.161645812988281,997.8909301757812,247.74606323242188,51.65131278088575,0.0,33.28583449714202
1557947889990,7.369475097656251,-7.073705176664556,0.9647293210251396,-1.4961387634277346,3.211571502685547,997.8909301757812,245.4407501220703,51.65131471609271,0.0,31.541195255158463
1557947890057,8.776698760986328,-7.073705176664556,0.24420942442809995,-2.0432510375976562,3.3693434143066407,997.8909301757812,244.03164672851562,51.651312348704295,0.0,25.976951859255124
1557947890125,7.891289978027344,-7.073705176664556,0.34070872525020207,-0.7463479614257813,2.7872039794921877,997.8909301757812,239.63047790527344,51.65131230899033,0.0,25.943925503754265
1557947890191,7.745792541503906,-7.073705176664556,0.26478846815986695,-0.9785151672363281,1.9767892456054688,997.8909301757812,239.63047790527344,51.65131381969911,0.0,28.549130223078553
1557947890258,7.851622467041016,-7.073705176664556,0.33073774426109787,0.023201751708984378,1.4515315246582032,997.8909301757812,242.64089965820312,49.21067348890234,0.0,32.027606873932
1557947890330,10.33974838256836,-7.073705176664556,0.8626719067818687,-2.192490692138672,0.5285508728027344,997.8909301757812,242.64089965820312,49.21067129569154,0.0,34.394905903896834
1557947890390,7.509134674072266,-7.073705176664556,0.6931166442831797,-1.5203883361816406,-0.8113128662109376,997.8909301757812,242.64089965820312,49.21067191222676,,33.296012483565185
1557947890456,7.9854441833496095,-7.073705176664556,0.1380248430401335,-0.950673065185547,-0.3683839416503906,997.8909301757812,239.55462646484375,49.21067019689058,,34.53012391121455
1557947890530,10.655741271972657,-7.073705176664556,2.307646096748679,3.345692596435547,7.272177429199219,997.8909301757812,232.40853881835938,49.21067352444792,36.3330078125,33.55259905527379
1557947890590,17.472415924072266,-7.073705176664556,2.1410404802858087,1.8160235595703127,1.20948486328125,997.8909301757812,235.89190673828125,49.210672014763986,,33.47915186501692
1557947890656,10.2315234375,-7.073705176664556,1.343848048219458,2.1246817016601565,2.1710852050781253,997.8909301757812,240.05767822265625,49.210671025591154,0.0,27.781512503836435
1557947890726,5.329816589355469,-7.073705176664556,1.5892453343035517,0.8834628295898438,2.160157928466797,997.8909301757812,238.38966369628906,49.21066793105571,0.0,31.13943352306837
1557947890790,5.348377990722657,-7.073705176664556,0.7909108735270319,-0.7360194396972657,0.17917739868164062,997.9248809814453,237.33590698242188,48.3728599699612,0.0,26.560982020128318
1557947890859,7.026238861083985,-7.073705176664556,0.5804210695616869,2.31837890625,0.7059320068359375,997.9248809814453,239.0314483642578,48.372860242104544,0.0,29.232440186302764
1557947890930,8.276738433837892,-7.073705176664556,0.4449982426684053,1.8724562072753907,1.0330018615722656,997.9248809814453,240.54608154296875,48.37285907809359,0.0,27.965743332104296
1557947890990,17.66222122192383,-7.073705176664556,2.6384023083565644,0.9696835327148438,4.941673736572266,997.9248809814453,240.54608154296875,48.372861587564934,0.0,31.792644643390254
1557947891057,16.76603485107422,-7.073705176664556,1.6268440337814785,-5.103038177490235,3.3079710388183594,997.9248809814453,234.83914184570312,48.372858591807635,,33.14288660947498
1557947891128,10.454110565185548,-7.073705176664556,1.8959558047659633,0.016316070556640624,0.33679962158203125,997.9248809814453,233.1306610107422,48.37286036843956,236.865234375,34.76831628512261
1557947891190,5.901028747558594,-7.073705176664556,1.5451911650206538,-1.0112969970703125,2.714455261230469,997.9248809814453,231.87384033203125,48.37286051722067,236.865234375,26.25312450961674
1557947891257,6.850354614257813,-7.073705176664556,0.6159062576329881,-1.1820918273925782,-0.2760260009765625,997.9248809814453,231.87384033203125,48.37286058045267,0.0,32.821687783046414
1557947891330,6.13409408569336,-7.073705176664556,0.41242490231201906,-0.8659492492675782,-1.0635383605957032,997.9248809814453,231.87384033203125,48.37286033379323,,34.24881636631067
1557947891390,7.966433715820313,-7.073705176664556,0.6865024885796583,-3.121458892822266,-0.35895355224609377,997.9248809814453,233.2574462890625,48.37286257942042,,32.78067330888662
1557947891457,13.599819030761719,-7.073705176664556,1.662360070416272,-0.6012995910644532,1.5176939392089845,997.9248809814453,229.24551391601562,48.37286202429014,160.90657552083331,36.413749451921255
1557947891530,12.659025421142578,-7.073705176664556,1.1919897131205464,1.8348843383789064,4.744833068847656,997.9248809814453,227.44808959960938,48.37285905279808,160.90657552083331,37.916204826928144
1557947891590,14.336437225341797,-7.073705176664556,1.1544671957596548,3.655847625732422,0.4248165893554688,997.9248809814453,230.8124542236328,48.37286036707455,,30.65206128054312
1557947891657,9.196425933837892,-7.073705176664556,1.463596592968781,-0.2279759216308594,2.610421600341797,997.9248809814453,231.9978485107422,48.37286188961633,40.6024169921875,28.59138297294531
1557947891736,6.1695703125,-7.073705176664556,1.1398517946953322,-0.001347198486328125,0.5249583435058593,997.9524993896484,230.8907470703125,48.372858936399794,0.0,31.041455505540082
1557947891793,7.514822845458985,-7.073705176664556,0.274876107805346,1.3988410949707033,1.0985655212402343,997.9524993896484,232.58306884765625,48.372859817410784,0.0,26.95481676490197
1557947891857,6.75679916381836,-7.073705176664556,0.5716725102139569,2.758014678955078,-0.39517822265625,997.9524993896484,232.58306884765625,48.99734319185097,0.0,28.027737252919756
1557947891929,10.325977020263672,-7.073705176664556,1.1023810484945689,0.06152206420898438,1.5968792724609375,997.9524993896484,231.79359436035156,48.997342819845166,0.0,30.740846890282437
1557947891990,12.596904602050781,-7.073705176664556,1.8110565058243566,0.4369413757324219,4.934338989257813,997.9524993896484,229.6940460205078,48.99734182183194,0.0,32.55272505103306
1557947892057,14.283746795654297,-7.073705176664556,1.376947531570598,-4.3084904479980475,2.0866607666015624,997.9524993896484,222.8619384765625,48.99734280807868,0.0,30.644579892269185
1557947892130,9.602381744384767,-7.073705176664556,1.3399582272591304,-0.37122802734375004,2.9940737915039066,997.9524993896484,222.8619384765625,48.99734591220206,0.0,25.4282542695918
1557947892190,5.185816040039063,-7.073705176664556,1.4012332137334542,-0.6370751953125,2.489622802734375,997.9524993896484,222.8619384765625,48.99734654220982,0.0,23.364597338485297
1557947892257,7.482939147949219,-7.073705176664556,0.5987170453589928,-1.1874806213378908,0.4171824645996094,997.9524993896484,221.5616455078125,48.99734588208375,0.0,23.926969532596658
1557947892330,7.698939971923829,-7.073705176664556,0.5152303281923203,-1.4100677490234377,-1.024768981933594,997.9524993896484,223.47752380371094,54.41246731079167,0.0,26.483600109809316
1557947892390,6.8073939514160156,-7.073705176664556,0.39322249159950945,-0.7719447326660157,0.7191046142578126,997.9524993896484,224.5312957763672,50.104482090877006,0.0,30.354297381845484
1557947892457,9.41377395629883,-7.073705176664556,0.6246542136020825,-1.0071057128906251,-0.2411485290527344,997.9524993896484,223.14683532714844,50.104506283518674,0.0,34.906606533561366
1557947892529,11.946507110595704,-7.073705176664556,0.8107088006198686,-1.3343252563476564,0.6700067138671876,997.9524993896484,223.14683532714844,49.825526428920114,,29.916690073799487
1557947892590,10.853330383300781,-7.073705176664556,2.1494909498554997,5.438939666748047,5.880371704101563,997.9524993896484,221.83091735839844,49.82554902397042,,31.228709228644355
1557947892657,12.779674530029297,-7.073705176664556,1.2883500907345158,-0.2639012145996094,1.9068846130371095,997.9524993896484,224.2610321044922,49.8255842631412,32.2998046875,32.29425847920695
1557947892729,9.189989318847656,-7.073705176664556,0.7870065411510809,0.7999365234375,2.918031921386719,997.9524993896484,224.2610321044922,51.005273920447856,0.0,27.788744720027395
1557947892790,8.69676498413086,-7.073705176664556,0.3734341271717603,1.251098327636719,2.205513610839844,997.9780578613281,225.8279571533203,51.00529567687943,0.0,26.61812685537261
1557947892857,5.617368621826172,-7.073705176664556,1.0497867751692675,0.5774990844726563,-0.041613464355468754,997.9780578613281,225.8279571533203,51.63162328690531,0.0,32.100508498751374
1557947892929,7.087910614013672,-7.073705176664556,0.23659198300032622,1.4162049865722657,0.4147874450683594,997.9780578613281,225.8279571533203,51.63164424100356,0.0,28.937617620579434
1557947892990,9.399254150390625,-7.073705176664556,0.7528654976638,2.9659323120117187,0.34757720947265625,997.9780578613281,222.7399139404297,51.07144213567497,0.0,30.17450729510536
1557947893057,14.422508239746094,-7.073705176664556,1.578179982217455,0.22079086303710938,2.012714538574219,997.9780578613281,221.7349090576172,51.071480691991816,0.0,28.312296938670634
1557947893128,11.010054473876954,-7.073705176664556,1.3677933694640416,-4.002975769042969,3.2946487426757813,997.9780578613281,217.22898864746094,51.07150519066019,0.0,30.83144143143052
1557947893191,13.123060455322266,-7.073705176664556,0.8704348426386853,-1.5739768981933595,0.04086502075195313,997.9780578613281,213.9602508544922,51.07152581709936,0.0,25.932860670204573
1557947893257,11.239527282714844,-7.073705176664556,0.5673775399387413,-1.204395446777344,2.330054626464844,997.9780578613281,212.31898498535156,51.07156219937869,0.0,29.590413923210935
1557947893331,5.163063354492188,-7.073705176664556,1.6344240868770057,-0.7469467163085938,1.0455757141113282,997.9780578613281,210.25059509277344,51.071585266014466,0.0,27.20159303405957
1557947893390,7.804620208740235,-7.073705176664556,0.4736476936510666,-0.5025050354003906,-0.2709365844726563,997.9780578613281,211.4580841064453,51.071611465977035,0.0,25.37819095073274
1557947893457,6.449637908935547,-7.073705176664556,0.6648310735873108,-1.6203804016113281,-2.0844154357910156,997.9780578613281,212.57363891601562,52.32582775997116,0.0,30.59941888061955
1557947893530,8.510103149414062,-7.073705176664556,0.5304487296651568,-1.7886305236816407,-0.47032196044921876,997.9780578613281,212.57363891601562,52.32585910691264,0.0,30.678145111618402
1557947893592,9.576934661865234,-7.073705176664556,0.39788835150671276,-1.3733940124511719,-1.1198213195800781,997.9780578613281,210.81129455566406,52.325873424355265,0.0,30.64083435963596
1557947893657,12.34198471069336,-7.073705176664556,1.4212833376601555,0.6827302551269532,3.2054342651367187,997.9780578613281,206.9405059814453,52.32590833200239,,33.13234291694724
1557947893729,14.476695556640626,-7.073705176664556,1.6821399951996157,6.142476654052735,3.057092742919922,997.9780578613281,205.90353393554688,52.32592512442519,0.0,31.486026548060934
1557947893790,11.464509429931642,-7.073705176664556,1.5594748048213136,-1.1594888305664064,2.6852659606933593,998.0057525634766,208.99082946777344,52.32595998497402,0.0,27.16837723299524
1557947893857,7.274422760009766,-7.073705176664556,1.2603282375450744,-0.31763946533203125,1.1784992980957032,998.0057525634766,210.163818359375,52.325971701480576,0.0,29.556877503135055
1557947893929,7.007378082275391,-7.073705176664556,0.7140995028751406,2.2074595642089845,0.9276210021972656,998.0057525634766,210.163818359375,52.326006258514425,0.0,32.301933788690455
1557947893990,6.336173858642579,-7.073705176664556,0.43628623606731953,0.8605604553222657,-0.09864486694335937,998.0057525634766,210.163818359375,52.32603577856982,0.0,29.237619608287005
1557947894057,8.926387481689453,-7.073705176664556,0.8186504545794461,3.0335916137695316,-0.9638456726074219,998.0057525634766,210.163818359375,52.32606062538848,0.0,27.61927838420529
1557947894130,9.15990188598633,-7.073705176664556,0.27451885618671185,2.361339569091797,0.039517822265625,998.0057525634766,211.61434936523438,52.326085213877164,0.0,33.52182518111362
1557947894190,13.329032135009767,-7.073705176664556,1.3656354080517121,-0.5864804077148438,1.189127197265625,998.0057525634766,208.6328125,52.326083142429745,0.0,28.830933585756902
1557947894257,10.45141616821289,-7.073705176664556,0.8664888548886874,-2.711162109375,2.8262727355957034,998.0057525634766,204.97727966308594,52.326085678641334,0.0,27.972675408307165
1557947894329,17.333504791259767,-7.073705176664556,1.6881525162391726,-0.35401382446289065,0.6472540283203125,998.0057525634766,202.7600860595703,52.326086559951584,0.0,29.703468762300936
1557947894390,7.072642364501953,-7.073705176664556,2.1646270881357785,-0.3929328918457031,0.8390052795410157,998.0057525634766,202.7600860595703,52.326084176363665,0.0,29.849771264154935
1557947894457,7.872129821777344,-7.073705176664556,0.40343711345848454,-1.2967533874511719,0.7039860534667969,998.0057525634766,199.13076782226562,52.32608430381254,0.0,27.234556720351858
1557947894528,7.543712768554688,-7.073705176664556,0.6698363595464815,-0.9157955932617188,-1.836680603027344,998.0057525634766,201.12245178222656,44.572970204060624,0.0,28.260748027008265
1557947894590,8.42612777709961,-7.073705176664556,0.18634470828809127,-0.7515870666503907,-1.227447509765625,998.0057525634766,201.12245178222656,44.57298283757388,0.0,27.20159303405957
1557947894657,10.576106872558594,-7.073705176664556,0.6960216657189794,-0.07424560546875,-2.7174490356445316,998.0057525634766,195.3030548095703,44.57301339714493,0.0,26.560982020128318
1557947894729,9.691745910644531,-7.073705176664556,0.5109688165229122,1.0021659851074218,-3.5857933044433596,998.0057525634766,195.3030548095703,44.57303654263697,0.0,31.32899769944483
1557947894790,15.521971893310548,-7.073705176664556,2.0264084854293607,-0.05912704467773438,2.394720153808594,998.0331420898438,190.31375122070312,44.57305826786184,,34.479328655921805
1557947894857,12.645703125,-7.073705176664556,1.6337323939505672,2.837649078369141,6.737489318847657,998.0331420898438,187.4654998779297,44.57307876266165,30.7470703125,35.17195897949974
1557947894931,11.952494659423829,-7.073705176664556,1.3696672644368262,1.8525476074218752,-0.07065307617187501,998.0331420898438,189.90325927734375,44.573098346953735,30.7470703125,30.867156639448826
1557947894991,9.871072998046875,-7.073705176664556,0.6077316420407901,1.4641053771972656,1.7152830505371095,998.0331420898438,192.32949829101562,44.57312095159065,,30.484418035504042
1557947895057,6.1522064208984375,-7.073705176664556,1.0926204079652755,0.7842192077636719,0.9903405761718751,998.0331420898438,185.73204040527344,44.57314902455696,57.25081380208333,29.561684304753634
1557947895132,8.026907958984376,-7.073705176664556,0.2978237928944245,0.41344024658203127,1.4230906677246093,998.0331420898438,185.38839721679688,44.57317284982863,0.0,29.041743682841634
1557947895191,11.162437591552735,-7.073705176664556,0.9002708960243714,0.048648834228515625,0.12259506225585938,998.0331420898438,182.09739685058594,35.32305777250632,0.0,28.57935264719429
1557947895257,11.73125473022461,-7.073705176664556,0.8800991857563674,2.928061065673828,-1.284778289794922,998.0331420898438,183.38107299804688,35.32306611062769,0.0,32.931414834509305
1557947895329,13.85039794921875,-7.073705176664556,0.7072131202061085,3.410208435058594,-0.11930191040039063,998.0331420898438,181.32798767089844,35.323090468734335,0.0,30.24485667699167
1557947895391,7.843838653564453,-7.073705176664556,1.8787564070660359,-0.06556365966796876,3.8550833129882816,998.0331420898438,174.27613830566406,35.32310646245747,0.0,34.16973172603036
1557947895457,5.797893218994141,-7.073705176664556,1.1733902455384964,-1.4798226928710938,5.188211059570313,998.0331420898438,168.33001708984375,35.32312367488137,,32.22456336679247
1557947895531,13.300291900634766,-7.073705176664556,1.8591450023512834,1.289418640136719,2.122735748291016,998.0331420898438,166.28875732421875,35.32314996200469,27.939453125,39.3641319971148
1557947895590,8.95692398071289,-7.073705176664556,0.964144781443138,0.5324427795410156,-0.025147705078125002,998.0331420898438,163.12796020507812,35.18680528683858,,32.09515014542631
1557947895657,8.216413879394532,-7.073705176664556,1.1036477453485434,-1.5977774047851563,4.236041107177734,998.0331420898438,151.46353149414062,35.18682333193744,,30.398105541483503
1557947895726,8.787176971435548,-7.073705176664556,0.36601383673293,-0.5396278381347657,1.9898121643066407,998.0331420898438,141.8758544921875,35.18683959587034,0.0,25.514499979728754
1557947895792,9.496102752685548,-7.073705176664556,0.43246804596853766,-1.8523979187011719,1.3250445556640627,998.0608367919922,135.18931579589844,35.18686359329015,0.0,30.382226383687186
1557947895857,10.803184661865235,-7.073705176664556,0.6069142968869842,-0.1197509765625,0.31644195556640625,998.0608367919922,125.971923828125,35.18688189552259,0.0,30.232524596337115
1557947895928,13.710888061523438,-7.073705176664556,1.3108723949741627,-2.7225384521484375,4.04997802734375,998.0608367919922,118.52510070800781,35.18689906170217,0.0,33.19938439980309
1557947895990,8.214318237304688,-7.073705176664556,1.2037520316758294,-1.064586181640625,3.5353482055664065,998.0608367919922,111.88472747802734,35.186906873822835,,33.88101201570517
1557947896057,7.5327854919433594,-7.073705176664556,0.8699799980110949,1.4409036254882812,4.429289245605469,998.0608367919922,107.37813568115234,35.18690799896483,0.0,30.034605321095068
1557947896128,7.334148559570313,-7.073705176664556,0.4957037237301592,-1.0373428344726563,4.744982757568359,998.0608367919922,103.44221496582031,35.186907940379946,0.0,32.88472800599783
1557947896190,11.276051330566407,-7.073705176664556,1.1302608977408428,1.2398716735839845,2.9246182250976562,998.0608367919922,96.62208557128906,35.186905342316344,,30.860037056183817
1557947896257,9.179810485839845,-7.073705176664556,0.309283529977402,1.149459686279297,3.083587646484375,998.0608367919922,92.9416732788086,35.186907800518654,0.0,30.38620161949703
1557947896328,8.793912963867188,-7.073705176664556,0.32501002798925627,0.2655477905273438,2.7737319946289065,998.0608367919922,90.08386993408203,35.186905494364865,0.0,26.51278013998144
1557947896390,9.123677215576173,-7.073705176664556,0.45001745019724615,1.6175363159179688,1.6819024658203126,998.0608367919922,83.16922760009766,35.18690717785582,0.0,34.26998958756537
1557947896458,9.663155364990235,-7.073705176664556,0.4374613539957473,0.11630813598632814,0.8084687805175782,998.0608367919922,79.95054626464844,35.18690685450224,0.0,32.873537727147465
1557947896531,9.910740509033204,-7.073705176664556,0.11206541405130364,0.6093827819824219,1.02267333984375,998.0608367919922,78.41494750976562,35.18690664876809,0.0,26.9810054562339
1557947896590,10.55724609375,-7.073705176664556,0.3950175319989512,1.8905685424804688,0.2788700866699219,998.0608367919922,77.03228759765625,35.18690814494285,0.0,29.68015713993642
1557947896657,10.932964782714844,-7.073705176664556,0.6240143884225912,2.77822265625,-1.556613006591797,998.0608367919922,75.58744812011719,31.947507648528337,0.0,27.93790384690819
1557947896730,9.754615173339845,-7.073705176664556,1.369128601606058,1.7101936340332031,4.277205505371094,998.0608367919922,78.6253890991211,31.947523827835298,0.0,38.695250628572275
1557947896790,6.2384271240234375,-7.073705176664556,1.8771941826956635,-3.9011874389648438,5.869743804931641,998.0918121337891,81.5626220703125,31.94753687904364,0.0,36.60960291776084
1557947896857,10.912906494140625,-6.4887426759434,0.9942242157791434,-1.1127859497070314,5.460345153808594,998.0918121337891,81.5626220703125,31.94755238348818,,35.268559871258745
1557947896929,9.262738037109376,-7.073705176664556,1.403246408272998,-0.9656419372558595,0.17753082275390625,998.0918121337891,76.9592056274414,31.947579204992355,57.1044921875,31.82984967003582
1557947896990,6.98911605834961,-7.073705176664556,1.431125972988036,-2.946921844482422,4.4403662109375,998.0918121337891,75.76841735839844,31.94758734869007,,30.350292822023683
1557947897057,7.791597290039063,-7.073705176664556,0.7300439020950009,-0.8198451232910157,1.2067904663085938,998.0918121337891,70.9666519165039,32.00226683322432,,29.047155452786807
1557947897128,7.4871304321289065,-7.073705176664556,0.26128306831761505,-0.6816824340820313,1.1391311645507813,998.0918121337891,65.03052520751953,32.002281881994165,0.0,28.94869656745253
1557947897191,8.196654968261718,-7.073705176664556,0.1983744169149878,-1.1729608154296876,1.3099259948730468,998.0918121337891,65.03052520751953,32.002298633372725,0.0,30.064660422492317
1557947897257,8.026458892822266,-7.073705176664556,0.1248694821654926,-1.2579840087890626,0.8572673034667969,998.0918121337891,65.03052520751953,32.00229937369807,0.0,30.580462303952814
1557947897331,9.84592529296875,-7.073705176664556,0.5555867361898575,-1.620230712890625,-0.24219635009765625,998.0918121337891,70.1950912475586,32.002298252529776,0.0,36.91700208290162
1557947897390,10.439291381835938,-7.073705176664556,0.8276888462345583,-1.374591522216797,-2.8969258117675785,998.0918121337891,71.2603759765625,32.00229885086489,,37.14329759745233
1557947897457,10.530451812744142,-7.073705176664556,2.223359303849737,3.0064979553222657,5.907764739990235,998.0918121337891,74.08470153808594,32.0022989799074,30.869140625,33.85606273598312
1557947897527,13.42213851928711,-7.073705176664556,0.8981427777326346,0.7575746154785157,2.376757507324219,998.0918121337891,74.08470153808594,32.002298153947216,30.869140625,32.347702951609165
1557947897590,11.130703582763672,-7.073705176664556,0.9852518140434217,1.2964540100097657,-0.863404541015625,998.0918121337891,77.89413452148438,30.763300504508972,28.5498046875,30.42181594515766
1557947897657,7.127578125,-7.073705176664556,1.1062258234523579,1.3370196533203125,0.5902226257324219,998.0918121337891,77.89413452148438,30.763308629963287,0.0,27.067177823367587
1557947897728,7.4485107421875005,-7.073705176664556,0.36724481031832784,0.3442840576171875,-0.33126113891601566,998.0918121337891,77.89413452148438,30.76332242961652,0.0,31.920095926536703
1557947897791,7.781717834472657,-7.073705176664556,0.40962261997024335,1.3310321044921876,-1.5881973266601563,998.1222534179688,77.89413452148438,30.76333838388103,0.0,28.363241157067517
1557947897857,7.447462921142579,-7.073705176664556,0.6288032786373674,3.5760635375976566,-1.796114959716797,998.1222534179688,74.68463897705078,30.763358531103542,0.0,27.40362689494244
1557947897927,10.284064178466798,-7.073705176664556,0.9230871597329712,2.219734039306641,0.6803352355957032,998.1222534179688,72.455810546875,30.763371336340136,0.0,28.85361220031512
1557947897991,14.174923095703125,-7.073705176664556,1.5357102890069896,-1.2485536193847657,1.9365229797363281,998.1222534179688,72.455810546875,30.763386635464133,0.0,31.892094895823064
1557947898057,11.442505187988282,-7.073705176664556,1.2498271935741208,-4.636159057617188,-0.5162763977050782,998.1222534179688,67.98566436767578,30.763399643100133,0.0,29.96949248495381
1557947898128,12.401560821533204,-7.073705176664556,1.3288651850260171,1.054706726074219,-0.5060975646972656,998.1222534179688,64.5588607788086,30.763420935358166,0.0,30.737183503461228
1557947898190,5.614674224853516,-7.073705176664556,2.063618822746598,0.12244537353515626,0.7448510742187501,998.1222534179688,64.5588607788086,30.763436848078964,0.0,30.41392685158225
1557947898257,8.196056213378906,-7.073705176664556,0.46084154958668255,-1.144519958496094,-0.8190966796875,998.1222534179688,64.5588607788086,30.763453669996323,0.0,29.444826721501688
1557947898331,7.540718994140625,-7.073705176664556,0.2933049853660451,-0.36284545898437504,-1.434467010498047,998.1222534179688,63.460968017578125,30.763475387231345,0.0,28.50033257689769
1557947898390,6.7879344177246095,-7.073705176664556,0.3304703312347703,0.4646337890625,-0.9351054382324219,998.1222534179688,63.460968017578125,30.7634835650157,0.0,30.136796972911924
1557947898458,9.722432098388673,-7.073705176664556,0.7594935746624545,-1.136287078857422,-0.9377998352050781,998.1222534179688,64.809814453125,33.99185991782207,0.0,31.54423973114647
1557947898531,13.157339172363281,-7.073705176664556,1.1622553453843294,-1.2716056823730468,1.1597882080078126,998.1222534179688,66.0985107421875,33.991874570688395,0.0,31.296898921993012
1557947898596,10.173444213867189,-7.073705176664556,1.2218290607775466,2.631078643798828,3.028502197265625,998.1222534179688,66.0985107421875,33.991893032100535,0.0,31.027766148834417
1557947898657,15.641423492431642,-7.073705176664556,1.4288252688753946,1.599873046875,-0.3754193115234375,998.1222534179688,64.31590270996094,33.99190878140214,,32.86231854028553
1557947898728,9.487720184326172,-7.073705176664556,1.2736657537295282,0.27767257690429686,0.5557942199707031,998.1222534179688,64.31590270996094,33.991933906672564,,31.37670537236755
1557947898790,7.43698471069336,-7.073705176664556,0.8828273453802112,0.3034190368652344,1.774559783935547,998.1453704833984,65.53007507324219,33.9919492318865,65.95703125,30.770043267933502
1557947898858,7.895930328369141,-7.073705176664556,0.7054868467562029,1.2954061889648438,-1.1897259521484376,998.1453704833984,64.31429290771484,33.99196524231689,0.0,31.50449409460881
1557947898930,6.781048736572266,-7.073705176664556,0.3062607088262691,0.8548722839355469,-0.46717849731445316,998.1453704833984,64.31429290771484,38.53948084827649,0.0,26.424645202421214
1557947898991,9.50149154663086,-7.073705176664556,0.7422306637621989,2.581381988525391,-0.08083190917968751,998.1453704833984,63.10251235961914,38.5394979974166,0.0,27.745169657285498
1557947899057,8.093818817138672,-7.073705176664556,0.23542970527529314,1.8702108764648437,0.214354248046875,998.1453704833984,61.34018325805664,38.53951736752829,0.0,27.39572344450092
1557947899127,12.482392730712892,-7.073705176664556,1.1581919073138602,0.0963995361328125,0.8316705322265625,998.1453704833984,61.34018325805664,38.53953713413788,0.0,30.740846890282437
1557947899190,12.48613494873047,-7.073705176664556,1.0540099715413418,-3.5233731079101562,0.542322235107422,998.1453704833984,59.21363830566406,38.539560422170666,0.0,29.206450014067876
1557947899257,14.968423004150392,-7.073705176664556,0.7741068436498608,-1.5539186096191406,-0.5035528564453126,998.1453704833984,56.914424896240234,38.53957823195412,0.0,31.306553490220303
1557947899329,7.030879211425781,-7.073705176664556,1.9063894390532032,0.32602203369140625,0.8065228271484376,998.1453704833984,55.736629486083984,38.53960925305604,0.0,27.62678563727436
1557947899390,8.29485076904297,-7.073705176664556,0.4766287742331622,-1.8905685424804688,-0.15148498535156252,998.1453704833984,55.736629486083984,38.539626062342194,0.0,25.07855871695831
1557947899457,7.366780700683594,-7.073705176664556,0.93521599215392,-0.2233355712890625,-3.339854736328125,998.1453704833984,54.14202880859375,38.53964499471859,0.0,29.29418925714293
1557947899527,7.866142272949219,-7.073705176664556,0.46448169689554575,-0.21031265258789064,-0.6846762084960938,998.1453704833984,50.21947479248047,38.53964426341406,0.0,35.00099191915723
1557947899591,9.662107543945313,-7.073705176664556,0.5359804472743555,-1.0672805786132813,-1.8841319274902344,998.1453704833984,51.869903564453125,38.53964450453447,0.0,29.074113607745858
1557947899657,11.344608764648438,-7.073705176664556,0.6525606789329718,-0.629740447998047,-0.3457809448242188,998.1453704833984,51.869903564453125,43.53620036185983,0.0,29.91226075692495
1557947899729,9.92061996459961,-7.073705176664556,1.5434237339558374,3.078647918701172,4.331243133544922,998.1453704833984,53.22101593017578,43.53621305325097,0.0,30.216027160282422
1557947899790,13.375735015869141,-7.073705176664556,1.2112071023500317,1.7953665161132812,-0.5071453857421875,998.1560516357422,51.850765228271484,43.536234064192286,0.0,28.561244442423003
1557947899857,11.474239196777344,-7.073705176664556,0.6389622487204606,1.357826385498047,-1.857187957763672,998.1560516357422,51.850765228271484,43.536268142980354,,30.46495164334708
1557947899927,7.8903918457031255,-7.073705176664556,1.3609216087982248,0.42122406005859375,2.3932232666015625,998.1560516357422,51.850765228271484,43.5362911501778,,28.987251815894936
1557947899991,6.226452026367188,-7.073705176664556,0.8552058721923287,0.08711883544921875,-0.6342311096191406,998.1560516357422,51.9535026550293,43.53631072662982,0.0,24.313637641589875
1557947900057,7.532186737060547,-7.073705176664556,0.331969315214696,1.3952485656738283,-0.05912704467773438,998.1560516357422,50.44333267211914,43.53633224331811,0.0,26.263403673750425
1557947900128,8.480315093994141,-7.073705176664556,0.39476532701707606,2.218985595703125,-0.21824615478515627,998.1560516357422,51.572021484375,43.536363252671485,0.0,28.549130223078553
1557947900190,11.804452514648439,-7.073705176664556,0.98946018319063,0.3158432006835938,0.04655319213867188,998.1560516357422,51.572021484375,43.536387447018306,0.0,28.41984804590114
1557947900257,12.564571838378907,-7.073705176664556,0.7925188542525988,-1.8467097473144531,0.8222401428222657,998.1560516357422,50.175079345703125,43.53639836957348,0.0,28.90979596989689
1557947900331,13.19940170288086,-7.073705176664556,0.7198786251554965,-3.7438645935058594,-0.24668701171875002,998.1560516357422,47.01126480102539,43.53641039164393,0.0,32.37292337567459
1557947900391,9.57768310546875,-7.073705176664556,1.1468984457404399,-0.18067428588867188,1.0577005004882813,998.1560516357422,45.81993865966797,46.193096445336586,0.0,25.185139398778876
1557947900457,6.140381011962891,-7.073705176664556,1.071421295617938,-1.5492782592773438,0.5345384216308594,998.1560516357422,45.81993865966797,46.19310708346742,0.0,23.22219294733919
1557947900528,7.8817098999023445,-7.073705176664556,0.3856588632558184,-0.6039939880371094,-0.7717950439453125,998.1560516357422,45.81993865966797,46.193125448372555,0.0,24.487063199050798
1557947900591,8.376580810546875,-7.073705176664556,0.3808323620453871,-0.3644920349121094,-1.768422546386719,998.1560516357422,45.81993865966797,46.193149423426576,0.0,25.31478917042255
1557947900657,7.160958709716797,-7.073705176664556,0.2976025570372665,0.01107696533203125,-1.7688716125488282,998.1560516357422,46.98387145996094,46.19317033521744,0.0,30.83502619830267
1557947900728,9.926757202148439,-7.073705176664556,0.6532167337782464,-0.29713211059570316,-0.9421408081054689,998.1560516357422,48.218353271484375,46.19320616553938,0.0,26.444385894678387
1557947900790,11.42948226928711,-7.073705176664556,0.6067432935724156,-1.2449610900878907,-1.5178436279296876,998.16162109375,48.218353271484375,46.193228491980726,0.0,25.658478186735177
1557947900857,10.181826782226564,-7.073705176664556,1.2716441699163321,1.6137940979003906,3.5305581665039063,998.16162109375,49.892547607421875,46.19325232382652,0.0,32.860071220794744
1557947900927,12.848681030273438,-7.073705176664556,0.7922945820751552,2.6015899658203128,1.3648617553710938,998.16162109375,51.65748596191406,46.19327409492863,0.0,26.24282095835668
1557947900991,13.565240936279297,-7.073705176664556,0.8648061300459683,1.8181192016601564,-1.5313156127929688,998.16162109375,51.65748596191406,46.193307856423175,0.0,29.585638832219672
1557947901057,6.628216552734376,-7.073705176664556,1.7402028749628184,0.34129028320312504,0.8081694030761719,998.16162109375,53.279937744140625,46.19332360846049,0.0,24.84299839346786
1557947901129,6.95558578491211,-7.073705176664556,0.3771619166816991,0.37736526489257816,-0.209564208984375,998.16162109375,53.279937744140625,46.19334343826891,0.0,26.314437690131722
1557947901200,9.02398452758789,-7.073705176664556,0.5921916991610586,1.9652632141113282,-0.9081614685058594,998.16162109375,53.279937744140625,46.19334384511206,0.0,27.76701183988411
1557947901257,8.726852416992188,-7.073705176664556,0.23046060928252513,2.3879841613769535,-0.8448431396484375,998.16162109375,53.279937744140625,46.19334443670954,0.0,28.561244442423003
1557947901331,8.137527923583985,-7.073705176664556,0.325229291608371,1.1298504638671876,-0.24459136962890626,998.16162109375,54.821041107177734,46.193343797993684,0.0,26.646419755561258
1557947901390,8.466543731689454,-7.073705176664556,0.2317549891218118,0.48693740844726563,-0.4896318054199219,998.16162109375,53.497676849365234,44.881623796877214,0.0,29.523080096621253
1557947901457,12.320579223632814,-7.073705176664556,1.053719924781392,0.8024812316894532,1.1285032653808593,998.16162109375,52.12856674194336,44.88162365245962,0.0,26.55138434811382
1557947901528,10.318043518066407,-7.073705176664556,1.4055487811204486,-4.681963806152344,1.5801141357421875,998.16162109375,48.04743957519531,44.88162356611531,0.0,29.537596917332287
1557947901590,16.11758331298828,-7.073705176664556,1.926903410540063,1.8357824707031252,-0.09490264892578125,998.16162109375,48.04743957519531,44.8816246559012,0.0,35.919545550467355
1557947901657,7.497309265136719,-7.073705176664556,1.8268697633344986,-0.20806732177734377,-0.42840911865234377,998.16162109375,46.611087799072266,44.88162485781128,,28.055008581584
1557947901731,8.153993682861328,-7.073705176664556,0.4100493768452687,-1.2936099243164063,0.38694534301757816,998.16162109375,46.611087799072266,44.88162281886906,0.0,24.517864355242903
1557947901792,7.9715231323242195,-7.073705176664556,0.42590624764586593,-0.7774832153320312,-1.37234619140625,998.1813812255859,46.611087799072266,44.881623821581705,0.0,28.027737252919756
1557947901857,6.882986755371094,-7.073705176664556,0.4117895686548075,-0.814306640625,-2.0637583923339844,998.1813812255859,45.483543395996094,48.24792731343442,0.0,29.712758487381056
1557947901928,8.634195098876953,-7.073705176664556,0.5674993988611369,-0.9693841552734376,-0.04565505981445313,998.1813812255859,45.483543395996094,48.24793867679267,0.0,27.528164311882716
1557947901990,8.731343078613282,-7.073705176664556,0.42484069106948485,-0.1327738952636719,-1.9113752746582031,998.1813812255859,46.84192657470703,48.2479394963546,0.0,30.043213737826427
1557947902057,13.122162322998047,-7.073705176664556,1.7398171874827968,-0.06556365966796876,3.74341552734375,998.1813812255859,50.679344177246094,48.24793788409196,0.0,33.97070549959408
1557947902128,9.778715057373047,-7.073705176664556,1.176844865986915,4.386927337646485,2.5740472412109376,998.1813812255859,52.98704528808594,48.247938585439876,0.0,33.3344727449675
1557947902191,11.844868469238282,-7.073705176664556,0.7119167945989632,1.4266831970214844,0.688568115234375,998.1813812255859,52.98704528808594,48.24794031698356,,32.98197867109815
1557947902257,9.3453662109375,-7.073705176664556,0.6881881834031603,0.1323248291015625,0.6550378417968751,998.1813812255859,52.98704528808594,48.247940797178124,,27.307822756663892
1557947902329,7.078180847167969,-7.073705176664556,0.8193857590327356,2.174677734375,0.24399261474609377,998.1813812255859,52.98704528808594,48.24793816482763,0.0,28.318697742805018
1557947902390,7.942184143066407,-7.073705176664556,0.17086229709534884,1.1121871948242188,0.28680358886718754,998.1813812255859,51.64957809448242,48.247939755634576,0.0,26.127838567197355
1557947902457,7.704328765869141,-7.073705176664556,0.278502707012254,1.4840139770507814,-0.7671546936035156,998.1813812255859,48.90894317626953,48.2479392777888,0.0,26.11723308007342
1557947902528,9.464518432617188,-7.073705176664556,0.9089488852696848,4.36806655883789,-1.2403207397460938,998.1813812255859,48.90894317626953,48.24793896310565,0.0,27.18501688867274
1557947902590,9.81,-7.073705176664556,0.23234130723156432,3.3591645812988284,-1.362466735839844,998.1813812255859,47.14167404174805,48.24793976595327,0.0,32.63162464962217
1557947902658,12.364737396240235,-7.073705176664556,1.1797349563781163,1.2171189880371094,1.824855194091797,998.1813812255859,45.795448303222656,48.24794057103865,,32.48953615495707
1557947902729,10.04231689453125,-7.073705176664556,1.5039959354909502,-2.7628047180175783,4.638105010986329,998.1813812255859,41.46009063720703,46.44194585100966,,31.436392352745433
1557947902790,12.037068786621095,-7.073705176664556,0.7086001977929595,0.7050338745117188,4.019890594482422,998.2178497314453,37.86729049682617,46.441965678978505,0.0,32.76461804173244
1557947902857,12.154574432373048,-7.073705176664556,0.862627836663519,-0.14504837036132814,0.5484594726562501,998.2178497314453,33.456932067871094,46.44198955907818,0.0,32.347702951609165
1557947902930,7.989934844970704,-7.073705176664556,1.0684664994070943,-0.3872447204589844,2.7699897766113284,998.2178497314453,24.496606826782227,46.442010734369454,0.0,30.83860800866573
1557947902990,8.171357574462892,-7.073705176664556,0.4220535473133816,-1.62142822265625,1.7598902893066408,998.2178497314453,10.683279037475586,45.32815710472343,0.0,25.024271199844325
1557947903057,8.87833740234375,-7.073705176664556,0.42697560292407316,-1.863175506591797,0.39622604370117187,998.2178497314453,1.7486398220062256,45.32818256948881,0.0,23.873898263387293
1557947903129,9.720186767578125,-7.073705176664556,0.5617013198324495,-0.24040008544921876,-0.6074368286132813,998.2178497314453,355.1165771484375,45.32820313949415,0.0,26.503075231319364
1557947903190,10.664273529052736,-7.073705176664556,0.3889917168183843,-0.0383203125,-1.0900332641601562,998.2178497314453,349.6469421386719,45.32821911088272,0.0,25.4282542695918
1557947903257,16.321159973144532,-7.073705176664556,1.8325093427104764,-3.374432830810547,1.9618203735351563,998.2178497314453,345.681396484375,45.32825708466902,0.0,36.928469192772305
1557947903329,4.077520751953125,-7.073705176664556,3.2364076805551805,4.120331726074219,3.3120126342773437,998.2178497314453,343.89508056640625,45.328278544583775,,28.075350280688532
1557947903390,10.001451873779297,-7.073705176664556,1.325928963444905,-0.4225712585449219,6.316265258789063,998.2178497314453,339.0813293457031,44.224704650292644,0.0,27.49736315569061
1557947903458,9.812544708251954,-7.073705176664556,1.0207248444656105,-0.9815089416503907,1.7199234008789064,998.2178497314453,332.71270751953125,44.22472696939915,0.0,27.664128471123995
1557947903531,8.678353271484376,-7.073705176664556,0.7225402643864615,1.8916163635253906,3.610192565917969,998.2178497314453,328.4885559082031,44.224763439763954,0.0,28.43855422623161
1557947903594,9.282496948242189,-7.073705176664556,0.3249453906834927,1.1433224487304687,2.132615203857422,998.2178497314453,326.4301452636719,44.22478616330472,0.0,32.86231854028553
1557947903657,8.395142211914063,-7.073705176664556,0.24784413339495448,1.4876065063476562,1.9473005676269532,998.2178497314453,320.5815124511719,44.22480312084372,0.0,24.653828514484182
1557947903731,10.418933715820312,-7.073705176664556,0.5581151808714163,0.25162673950195313,1.5081138610839844,998.2178497314453,317.3424987792969,44.224836568659086,0.0,32.46498580795801
1557947903792,10.81066909790039,-7.073705176664556,0.4844440599028959,0.8762777709960938,-0.060923309326171876,998.2563018798828,313.6094665527344,44.22485859771811,0.0,27.38780558484369
1557947903858,10.491233367919923,-7.073705176664556,1.1301276188088847,5.1109716796875,-0.9651928710937501,998.2563018798828,311.7236328125,44.22487811117112,0.0,32.08710019906401
1557947903929,11.283535766601563,-7.073705176664556,1.0445220746949764,1.2651690673828127,2.4040008544921876,998.2563018798828,316.97222900390625,33.757998721391715,0.0,32.65996370495079
1557947903990,6.063291320800782,-7.073705176664556,2.0669982341715727,-3.254232788085938,5.6344331359863284,998.2563018798828,315.6089782714844,33.75800451014068,0.0,34.06028944963615
1557947904057,8.511150970458985,-7.073705176664556,0.7626784966126615,0.8445437622070313,4.904251556396485,998.2563018798828,310.7829284667969,39.55421892296285,,34.21274791210347
1557947904129,12.813204803466798,-7.073705176664556,1.4685130899939998,1.3516891479492188,1.2570858764648438,998.2563018798828,303.6201477050781,39.55424848039586,,29.698816437465002
1557947904190,8.128396911621094,-7.073705176664556,1.0485438996161591,-1.268162841796875,3.2742910766601563,998.2563018798828,296.8426513671875,39.55426940005692,80.26171875,30.21189299069938
1557947904257,8.365653533935546,-7.073705176664556,0.26269939423189076,-1.5308665466308595,3.316952362060547,998.2563018798828,291.8089294433594,39.55428814838795,0.0,26.24282095835668
1557947904328,7.971223754882813,-7.073705176664556,0.2438710117599166,-1.8215620422363281,2.0910017395019533,998.2563018798828,284.9983825683594,39.55430618720844,0.0,26.93726948923647
1557947904390,9.472152557373047,-7.073705176664556,0.5113479048579431,-1.1403286743164063,0.8327183532714845,998.2563018798828,281.2572021484375,35.7057289040865,0.0,25.599066250361126
1557947904457,10.524913330078126,-7.073705176664556,0.48838766974684883,-0.13786331176757813,0.43304946899414065,998.2563018798828,276.57537841796875,35.705739345608166,0.0,23.891660843645326
1557947904533,11.471544799804688,-7.073705176664556,0.4896521093879539,-1.4861096191406251,-0.3933819580078125,998.2563018798828,271.7637634277344,35.70576563457937,0.0,25.865873046717546
1557947904590,13.948893127441407,-7.073705176664556,0.8141364968138755,-2.879861297607422,-0.06571334838867188,998.2563018798828,266.8797912597656,32.943341660993454,0.0,31.746411926604484
1557947904657,7.1455407714843755,-7.073705176664556,1.7702417989881993,-0.010029144287109375,2.536026306152344,998.2563018798828,262.24444580078125,32.94336485078344,0.0,30.4883008652835
1557947904731,7.404951324462891,-7.073705176664556,1.58108633157809,2.6131159973144533,7.164551239013672,998.2563018798828,262.24444580078125,31.939049830418313,0.0,27.944880466591698
1557947904790,10.598260803222656,-7.073705176664556,1.6545492607906385,-2.8169920349121096,2.079026641845703,998.2911682128906,258.3609619140625,31.939074439954652,0.0,28.1888541459401
1557947904857,8.629105682373048,-7.073705176664556,0.8715924178073474,1.581760711669922,3.288212127685547,998.2911682128906,258.5933837890625,31.939090640249685,0.0,24.471580313422194
1557947904930,8.797655181884766,-7.073705176664556,0.2020866133899503,1.0041119384765627,2.4542962646484376,998.2911682128906,258.5933837890625,31.939105311146538,0.0,29.62369335670021
1557947904990,9.434131622314453,-7.073705176664556,0.4268106676954119,-0.2525248718261719,1.5700849914550783,998.2911682128906,260.01715087890625,31.939126970867243,0.0,24.668676203541096
1557947905057,8.510851593017579,-7.073705176664556,0.2220835573045612,0.12304412841796876,1.4090199279785156,998.2911682128906,260.01715087890625,31.93914171580331,0.0,23.05351369446624
1557947905134,8.400381317138672,-7.073705176664556,0.28022469386318427,1.155596923828125,1.7536033630371095,998.2911682128906,258.8536071777344,31.93915483342136,0.0,23.979400086720375
1557947905190,7.218888244628906,-7.073705176664556,0.4477223336657574,1.4034814453125,0.5260061645507813,998.2911682128906,258.8536071777344,31.939161926246673,0.0,25.670263661590603
1557947905257,9.737700347900391,-7.073705176664556,0.5523185574359559,1.1301498413085938,0.8089178466796876,998.2911682128906,260.06317138671875,31.939176670836495,0.0,26.803355134145633
1557947905332,7.834408264160157,-7.073705176664556,0.6424539112641232,2.967578887939453,-0.42646316528320316,998.2911682128906,261.5419921875,31.939195686707123,0.0,33.12600439261259
1557947905390,11.260483703613282,-7.073705176664556,0.8284800404760901,2.532134399414063,-1.319506072998047,998.2911682128906,265.51837158203125,27.465635751119844,0.0,33.21598430465344
1557947905457,11.571237487792969,-7.073705176664556,1.8329037010576121,-2.8568092346191407,3.8369709777832033,998.2911682128906,262.5872802734375,27.46564861453479,,35.45554507234065
1557947905529,12.109817504882812,-7.073705176664556,0.7030779926387578,-2.598745880126953,5.086722106933594,998.2911682128906,255.83135986328125,27.465661475634054,203.3154296875,27.024305364455255
1557947905591,12.841945037841798,-7.073705176664556,1.2513370334074356,-1.8238073730468751,-0.4207749938964844,998.2911682128906,255.83135986328125,27.465674344250445,203.3154296875,26.334684555795867
1557947905657,6.988517303466797,-7.073705176664556,1.5005729689799339,-0.018262023925781252,1.6479231262207032,998.2911682128906,250.69126892089844,27.465693508094166,0.0,23.384564936046047
1557947905731,7.854466552734375,-7.073705176664556,0.5304559138803308,-0.9333091735839845,-0.5697152709960938,998.2911682128906,250.69126892089844,27.465706579620882,0.0,25.13217600067939
1557947905790,7.288643188476563,-7.073705176664556,0.25955577820274944,-0.07499404907226563,-0.22378463745117189,998.3204650878906,250.69126892089844,27.465728401015397,0.0,26.314437690131722
1557947905857,9.32515823364258,-7.073705176664556,0.5463369047390703,-1.2229568481445312,-0.808319091796875,998.3204650878906,252.91921997070312,27.465734459509154,0.0,25.751878449276614
1557947905930,9.272318115234375,-7.073705176664556,0.3090202869909149,-1.9258950805664063,-1.3368699645996094,998.3204650878906,252.91921997070312,27.465754520875727,0.0,27.752462597402364
1557947905990,8.82564697265625,-7.073705176664556,0.26107649111040127,-0.7131170654296876,-1.0316546630859376,998.3204650878906,252.91921997070312,27.46576664305887,0.0,29.772662124272927
1557947906057,9.637708282470703,-7.073705176664556,0.2882493969128216,-0.9111552429199219,-1.9595750427246095,998.3204650878906,251.4290771484375,26.495751381619563,0.0,29.175055095525465
1557947906131,11.358380126953126,-7.073705176664556,1.7631776975492524,5.123096466064453,3.074157257080078,998.3204650878906,250.3078155517578,26.495751730582,0.0,29.849771264154935
1557947906190,14.364578704833985,-7.073705176664556,1.0931417024886516,-0.5516029357910156,1.9989431762695313,998.3204650878906,250.3078155517578,26.495749409769264,0.0,30.90610707828407
1557947906257,11.154803466796876,-7.073705176664556,0.5452565595221492,1.5919395446777345,0.83586181640625,998.3204650878906,251.3678741455078,26.495751777722223,0.0,26.22214022966295
1557947906343,6.732250213623047,-7.073705176664556,1.3467729757189424,1.0612930297851564,1.1945159912109375,998.3204650878906,253.43775939941406,26.49575159956884,0.0,27.363965022766426
1557947906398,6.589746551513672,-7.073705176664556,0.48227339106390277,0.3393443298339844,0.20462448120117188,998.3204650878906,252.75006103515625,26.495750730719884,0.0,28.350561017201162
1557947906457,6.792874145507813,-7.073705176664556,0.44317822023468006,1.6959732055664063,-0.8743318176269532,998.3204650878906,252.75006103515625,26.495752444526435,0.0,26.24282095835668
1557947906531,9.414971466064454,-7.073705176664556,0.66850627266465,2.0411553955078126,-1.1262579345703125,998.3204650878906,252.75006103515625,28.141207232601943,0.0,26.60865478003869
1557947906590,9.080267486572266,-7.073705176664556,0.3241118864118576,2.688110046386719,-0.3894900512695313,998.3204650878906,254.5484161376953,28.141213533610014,0.0,29.763499790032736
1557947906657,15.628550262451173,-7.073705176664556,1.8052036396321611,0.2808160400390625,1.2418176269531251,998.3204650878906,256.2016906738281,28.14122728410779,0.0,30.417873189717515
1557947906731,11.530971221923828,-7.073705176664556,1.7252052736788266,-5.278623046875,2.8407925415039066,998.3204650878906,251.82325744628906,28.141246606925446,0.0,29.66610986681934
1557947906790,15.108831024169923,-7.073705176664556,1.4313618358845404,0.599802703857422,0.07798782348632813,998.3371734619141,249.5069580078125,28.141262004012056,0.0,26.541765418779605
1557947906857,7.201224975585938,-7.073705176664556,1.805005523302291,-0.7982899475097657,1.4682966613769532,998.3371734619141,251.28582763671875,28.141275829855296,0.0,26.35483746814912
1557947906931,8.159083099365235,-7.073705176664556,0.37005362572192235,-1.4974859619140626,0.31674133300781254,998.3371734619141,250.18653869628906,28.1412974518462,0.0,24.03120521175818
1557947906990,6.952292633056641,-7.073705176664556,0.5689337418691681,-0.4236190795898438,-0.9970765686035157,998.3371734619141,251.75711059570312,28.141304892320296,0.0,24.45604203273598
1557947907057,7.749834136962891,-7.073705176664556,0.39158861548648183,-1.0030641174316406,-2.0680993652343753,998.3371734619141,251.75711059570312,28.141324869835987,0.0,29.175055095525465
1557947907131,10.083181915283204,-7.073705176664556,0.6499907063599053,-0.3496728515625,-2.3873854064941407,998.3371734619141,252.76873779296875,28.14133825994111,0.0,29.355072658247128
1557947907190,10.643167419433594,-7.073705176664556,0.30121960708869544,-0.6743476867675782,-2.0005897521972655,998.3371734619141,254.53756713867188,28.14135026790038,0.0,28.543060418010807
1557947907256,9.75296859741211,-7.073705176664556,1.2887542641264715,2.0408560180664064,2.314936065673828,998.3371734619141,253.31591796875,28.141364275195908,0.0,29.24795995797912
1557947907332,14.012810211181641,-7.073705176664556,1.2155306561459802,3.196902008056641,3.0717622375488283,998.3371734619141,255.8502197265625,28.141382154438897,0.0,27.41939077729199
1557947907390,12.309801635742188,-7.073705176664556,0.9296928954057287,1.7850379943847656,-0.9202862548828126,998.3371734619141,257.5207214355469,28.14139389987224,0.0,30.499928569201423
1557947907457,8.233328704833985,-7.073705176664556,1.1707823202210466,0.3291654968261719,0.9801617431640626,998.3371734619141,258.72454833984375,28.14140778190509,0.0,26.493348587121417
1557947907532,5.562133483886719,-7.073705176664556,0.9578490320394498,-0.052989807128906254,0.41194335937500004,998.3371734619141,257.45697021484375,28.141431099518954,0.0,27.535830588929066
1557947907590,5.977819061279297,-7.073705176664556,0.3307146709910816,1.2461585998535156,-0.03622467041015625,998.3371734619141,257.45697021484375,28.141445996672076,0.0,20.681858617461618
1557947907656,8.70918914794922,-7.073705176664556,0.8068065388478369,2.415077819824219,-1.1541000366210938,998.3371734619141,259.4891662597656,28.14146375697536,0.0,29.740509027928773
1557947907732,15.229330444335938,-7.073705176664556,1.9146186547328472,-0.31329849243164065,0.4345463562011719,998.3371734619141,260.8139343261719,28.141477207884872,0.0,31.7868923977559
1557947907790,11.550879821777345,-7.073705176664556,0.6729868021853745,-0.3588038635253906,1.9276913452148439,998.3392333984375,259.2769775390625,28.14148909462989,0.0,28.981764834976765
1557947907857,12.636871490478516,-7.073705176664556,0.25295461475172476,-0.9502239990234376,1.1874806213378908,998.3392333984375,255.40963745117188,28.141501348847527,0.0,30.55378331375
1557947907932,10.257718963623047,-7.073705176664556,0.6816487467477226,-1.9416123962402345,2.303859100341797,998.3392333984375,253.64956665039062,28.141515589335707,0.0,25.61101383649056
1557947907990,6.821165313720703,-7.073705176664556,1.0875995770395563,-0.8542735290527345,0.5083428955078125,998.3392333984375,251.9152374267578,28.141514867859087,0.0,22.174839442139064
1557947908057,5.741161193847656,-7.073705176664556,0.7115043904743955,-0.003742218017578125,-0.7454498291015625,998.3392333984375,251.9152374267578,28.14151470834683,0.0,26.6838591669
1557947908131,7.114555206298829,-7.073705176664556,0.4618930365471824,-0.9517208862304688,-1.8241067504882813,998.3392333984375,250.2537841796875,28.141516757071383,0.0,26.875289612146346
1557947908190,9.00138153076172,-7.073705176664556,0.6024246879265789,-1.905088348388672,-1.0912307739257814,998.3392333984375,248.77587890625,28.14151621983465,0.0,27.31588765186739
1557947908258,11.403885498046876,-7.073705176664556,0.741955868351652,-2.032473449707031,-0.9162446594238282,998.3392333984375,247.74012756347656,28.141516492749655,0.0,27.664128471123995
1557947908333,11.607761535644531,-7.073705176664556,1.775435581086697,3.207679595947266,3.8299356079101563,998.3392333984375,246.03549194335938,28.14151731669862,,32.81260687055013
1557947908390,13.114677886962891,-7.073705176664556,0.5808520939454285,0.5959107971191406,1.8483563232421876,998.3392333984375,246.02008056640625,28.141515812101296,,35.96047007545439
1557947908457,10.166708221435547,-7.073705176664556,0.6611573719820116,0.6665638732910156,2.8252249145507813,998.3392333984375,247.56735229492188,28.141517109667966,35.576171875,28.86490725172482
1557947908532,8.345595245361329,-7.073705176664556,0.822310246059571,1.101409606933594,0.4655319213867188,998.3392333984375,248.90545654296875,28.141516679221976,0.0,24.927603890268376
1557947908594,6.741530914306641,-7.073705176664556,0.5839936601233955,1.768572235107422,0.4808001708984375,998.3392333984375,248.90545654296875,28.141516458289825,0.0,22.624510897304294
1557947908657,7.44611572265625,-7.073705176664556,0.17084203026420827,1.6127462768554688,-0.0185614013671875,998.3392333984375,244.79110717773438,28.141516388464755,0.0,23.46352974450639
1557947908731,9.91972183227539,-7.073705176664556,0.7442076921928407,2.3655308532714847,-1.2409194946289064,998.3392333984375,244.79110717773438,28.141517629985326,0.0,27.752462597402364
1557947908790,8.446186065673828,-7.073705176664556,0.3442352719767374,3.2459999084472657,-0.9943821716308594,998.3415985107422,244.79110717773438,28.141517342515563,0.0,29.175055095525465
1557947908857,13.697266387939454,-7.073705176664556,1.651486170102966,-0.8554710388183594,0.9181906127929688,998.3415985107422,241.98846435546875,28.14151722225711,0.0,26.03144372620182
1557947908932,11.500285034179688,-7.073705176664556,0.8417995257138974,-3.020868072509766,1.2864248657226562,998.3415985107422,235.19847106933594,28.14151606597869,0.0,28.739015978644616
1557947908990,13.213622131347657,-7.073705176664556,1.0603358302070718,1.1958631896972658,-0.9225315856933595,998.3415985107422,231.48666381835938,28.14151668628151,0.0,25.538830266438744
1557947909057,11.132200469970703,-7.073705176664556,0.5339931414176344,-0.88855224609375,-0.7846682739257813,998.3415985107422,229.04283142089844,28.14151687153354,0.0,24.857214264815802
1557947909131,4.771777038574219,-7.073705176664556,1.7102630011767515,-0.004640350341796875,-0.07379653930664062,998.3415985107422,224.2532958984375,28.141518161690588,0.0,28.363241157067517
1557947909190,8.691076812744141,-7.073705176664556,0.9113614199732352,0.3746708679199219,-3.0708641052246097,998.3415985107422,221.3274383544922,28.141515752843407,0.0,28.260748027008265
1557947909258,8.874744873046875,-7.073705176664556,0.3862326430956684,-0.7939489746093751,-1.4865586853027344,998.3415985107422,219.00851440429688,28.141515597327142,0.0,30.0774777800074
1557947909331,8.864566040039064,-7.073705176664556,0.490665463188943,-0.04101470947265625,-3.5965708923339847,998.3415985107422,214.1694793701172,28.141516055062997,0.0,30.86359830674748
1557947909390,7.857310638427735,-7.073705176664556,0.2646189518819731,-0.030087432861328128,-3.540587310791016,998.3415985107422,212.8150634765625,28.14151686851933,0.0,39.219464542294105
1557947909457,14.171330566406251,-7.073705176664556,2.593286209203803,1.1922706604003908,4.878804473876953,998.3415985107422,209.766357421875,28.14151699223894,,37.576996250877386
1557947909533,13.168865203857422,-7.073705176664556,1.0281712664922216,4.357588348388672,4.93134521484375,998.3415985107422,204.00595092773438,28.141518406982684,336.0302734375,31.235249809427323
1557947909590,12.508588256835939,-7.073705176664556,1.1176321620921896,1.1520043945312501,0.8050259399414063,998.3415985107422,204.00595092773438,35.791079651939796,336.0302734375,29.689496809813427
1557947909657,9.526040496826173,-7.073705176664556,0.7816048057086703,1.2820838928222658,2.208357696533203,998.3415985107422,201.99246215820312,35.791102638806514,0.0,28.260748027008265
1557947909732,6.426585845947266,-7.073705176664556,1.0499422851435802,0.9542655944824219,0.1968406677246094,998.3415985107422,198.5314483642578,35.79111941613655,0.0,28.779469516291883
1557947909790,7.004234619140625,-7.073705176664556,0.33484338224036864,0.15013778686523438,1.2783416748046876,998.3600616455078,194.05458068847656,35.791147138291976,0.0,24.39332693830263
1557947909857,10.771600341796876,-7.073705176664556,0.974089235288381,0.49531997680664064,-0.1802252197265625,998.3600616455078,190.05259704589844,35.7911620677842,0.0,28.84795363948981
1557947909931,10.462044067382813,-7.073705176664556,0.9032523335290569,3.2421080017089845,-2.0471429443359375,998.3600616455078,191.3439483642578,35.79117876788962,0.0,30.588054866759066
1557947909990,13.719270629882812,-7.073705176664556,0.9693239253074021,1.8633251953125,0.2185455322265625,998.3600616455078,190.18203735351562,35.79119437395378,0.0,30.881360887005513
1557947910061,7.540569305419922,-7.073705176664556,1.6735799858241553,0.18007553100585938,3.3961376953125,998.3600616455078,183.9603729248047,35.791220315493874,0.0,28.85926339801431
1557947910131,7.877518615722656,-7.073705176664556,0.8563852973108466,-1.8302439880371095,4.645439758300782,998.3600616455078,178.3301544189453,35.791235101466945,0.0,26.989700043360187
1557947910190,12.428504791259765,-7.073705176664556,1.6331181736537908,3.171005859375,1.8820362854003907,998.3600616455078,175.57203674316406,35.79125287956876,0.0,31.04487111312395
1557947910259,8.305927734375,-7.073705176664556,1.0089101785687205,-0.08352630615234376,0.9081614685058594,998.3600616455078,170.93228149414062,35.791262560298634,0.0,27.101173651118163
1557947910332,8.869954833984375,-7.073705176664556,0.7134501346406293,-0.37511993408203126,4.013603668212891,998.3600616455078,158.63522338867188,35.79128027137844,0.0,30.013009330204184
1557947910390,9.328750762939453,-7.073705176664556,0.39007922246163046,-1.0572514343261719,2.118394775390625,998.3600616455078,148.16827392578125,35.535406458927746,0.0,24.653828514484182
1557947910458,8.557554473876953,-7.073705176664556,0.3044372400426337,-1.760039978027344,2.8455825805664063,998.3600616455078,135.47511291503906,35.53540617555384,0.0,23.76576957056512
1557947910534,9.672735443115235,-7.073705176664556,0.5784415067370621,-0.6908134460449219,0.8024812316894532,998.3600616455078,127.86587524414062,35.53540844259482,0.0,19.73127853599699
1557947910592,9.906848602294922,-7.073705176664556,0.3522489678331741,0.4152365112304688,1.1059002685546875,998.3600616455078,121.13850402832031,35.535408155663,0.0,26.294095991027188
1557947910658,10.74929672241211,-7.073705176664556,0.3371929868190831,-0.7632627868652344,0.7324269104003907,998.3600616455078,110.23523712158203,35.535407880596196,0.0,27.634279935629372
1557947910733,12.247980194091797,-7.073705176664556,0.9574390044980673,-3.963158569335938,0.8322692871093751,998.3600616455078,103.34333801269531,35.5354080298015,0.0,29.585638832219672
1557947910792,9.305249633789064,-7.073705176664556,1.0113685905424998,-0.060174865722656255,1.7130377197265625,998.3909606933594,98.17047882080078,35.53540840445637,0.0,28.45098040014257
1557947910858,6.487509155273438,-7.073705176664556,1.631365702804994,4.029320983886719,3.39374267578125,998.3909606933594,95.42759704589844,35.535408419691706,0.0,28.615344108590378
1557947910932,9.732012176513672,-7.073705176664556,1.5914565581832851,-2.8133995056152346,5.276677093505859,998.3909606933594,92.42098236083984,35.53540737454182,0.0,29.464522650130732
1557947910991,9.100176086425781,-7.073705176664556,0.8690459855317999,0.8168513488769532,2.1606069946289064,998.3909606933594,91.21401977539062,35.5354068156218,0.0,26.99837725867246
1557947911059,8.719817047119141,-7.073705176664556,0.19787615430801483,0.9502239990234376,2.8216323852539062,998.3909606933594,89.03226470947266,35.53540915337396,0.0,25.45307116465824
1557947911131,9.845326538085938,-7.073705176664556,0.4287919872677449,0.27393035888671874,1.6630416870117188,998.3909606933594,86.76737976074219,35.535408701386935,0.0,25.514499979728754
1557947911192,9.152417449951173,-7.073705176664556,0.3841579326659009,1.4986834716796875,1.2075389099121094,998.3909606933594,85.03844451904297,35.53540870347672,0.0,24.913616938342727
1557947911259,8.690028991699219,-7.073705176664556,0.3060640008366656,0.13980926513671876,1.1554472351074219,998.3909606933594,82.18295288085938,35.535407427395654,0.0,25.289167002776548
1557947911331,6.958429870605469,-7.073705176664556,0.5395902184160413,0.8945397949218751,0.2219883728027344,998.3909606933594,82.18295288085938,42.0328748678472,0.0,30.4883008652835
1557947911391,9.18145706176758,-7.073705176664556,0.5859448357421417,1.796114959716797,1.627266082763672,998.3909606933594,81.07003021240234,42.03288304633896,0.0,25.899496013257078
1557947911459,9.312883758544922,-7.073705176664556,0.5594297315770815,1.7428257751464844,-0.8190966796875,998.3909606933594,81.07003021240234,42.03290654822245,0.0,28.08210972924222
1557947911531,7.845485229492188,-7.073705176664556,0.9566416591065574,4.5689488220214844,-2.4278013610839846,998.3909606933594,82.59866333007812,42.032917523094284,0.0,30.354297381845484
1557947911591,15.189363555908203,-7.073705176664556,2.0918878579503026,-0.17738113403320313,0.258662109375,998.3909606933594,82.59866333007812,42.0329376833018,,30.366288953621613
1557947911658,9.524094543457032,-7.073705176664556,1.8039786682496741,-3.4693354797363285,3.9974372863769534,998.3909606933594,82.9737548828125,42.03296991320952,74.7680392795139,33.00812794118117
1557947911731,15.879129180908205,-7.073705176664556,1.5270575734413179,-0.16540603637695314,1.0767109680175782,998.3909606933594,80.06549072265625,39.92915316328954,74.7680392795139,30.3342375548695
1557947911791,8.60096420288086,-7.073705176664556,1.6807503938820518,-2.485132141113281,-1.0835966491699218,998.4248352050781,76.22293090820312,39.929173234351126,0.0,29.73589623427257
1557947911858,6.126160583496094,-7.073705176664556,1.2275749504599904,-0.38514907836914064,1.9574794006347658,998.4248352050781,73.34930419921875,39.929204171516744,0.0,28.62727528317975
1557947911931,9.42006088256836,-7.073705176664556,0.8808127087543637,-2.266736297607422,-0.8641529846191407,998.4248352050781,70.94459533691406,39.92921399648476,0.0,23.50248018334163
1557947911990,5.8035813903808595,-7.073705176664556,0.838467051194128,-0.5601351928710938,0.14938934326171877,998.4248352050781,69.4825668334961,39.929241278567005,0.0,25.70542939881897
1557947912058,8.336314544677736,-7.073705176664556,0.6856595374299963,0.026195526123046875,-1.8440153503417969,998.4248352050781,69.4825668334961,39.92925931158394,0.0,29.67547976218862
1557947912130,10.037826232910156,-7.073705176664556,0.706363116321582,-1.8550923156738282,-0.5631289672851563,998.4248352050781,69.4825668334961,39.929287611927265,0.0,32.29937685907934
1557947912190,7.505841522216797,-7.073705176664556,0.6468333693405698,-0.5146298217773437,-2.126178588867188,998.4248352050781,71.06468200683594,43.534194137892484,0.0,33.471347829100196
1557947912258,15.05075180053711,-7.073705176664556,2.1354291500987754,-0.34368530273437503,3.0256581115722656,998.4248352050781,72.50900268554688,43.53420363341365,,35.87823171318955
1557947912331,11.788435821533204,-7.073705176664556,1.0454607118474937,3.3727862548828127,2.637814636230469,998.4248352050781,74.95111846923828,41.80321319653481,269.4384765625,31.1293997608408
1557947912393,11.192525024414063,-7.073705176664556,0.8792907553347539,-0.024399261474609375,0.09744735717773438,998.4248352050781,74.95111846923828,41.80320961442353,269.4384765625,26.803355134145633
1557947912457,9.150471496582032,-7.073705176664556,0.6540585456444168,0.9460327148437501,1.9555334472656252,998.4248352050781,74.95111846923828,41.80321172566725,0.0,29.47433721887051
1557947912528,6.15085922241211,-7.073705176664556,0.965223477297352,-0.0437091064453125,0.22602996826171876,998.4248352050781,74.95111846923828,41.803210281932685,0.0,30.232524596337115
1557947912591,8.316855010986329,-7.073705176664556,0.5564960571788647,1.3810281372070312,-0.899180145263672,998.4248352050781,74.95111846923828,41.80321103471249,0.0,29.304395947667
1557947912657,8.509803771972656,-7.073705176664556,0.4093501257843376,2.604883117675781,-0.9701325988769531,998.4248352050781,74.95111846923828,41.80321130148418,0.0,30.824263008607716
1557947912732,8.044720916748048,-7.073705176664556,0.28715794983782256,0.858464813232422,-0.10762619018554688,998.4248352050781,73.75363159179688,41.803210385234955,0.0,28.9707700320942
1557947912794,15.409106597900392,-7.073705176664556,1.8999015387020837,-0.5379812622070312,-0.08322692871093751,998.4535980224609,72.02249145507812,42.179229559445815,0.0,30.301947853567516
1557947912858,11.643387451171876,-7.073705176664556,1.3575927399387637,-5.212161254882813,1.8411712646484375,998.4535980224609,68.34657287597656,42.179247179008726,0.0,31.46128035678238
1557947912926,16.5879052734375,-7.073705176664556,1.2548814046549637,-1.25738525390625,0.7929011535644531,998.4535980224609,63.444541931152344,42.17927481932121,0.0,25.185139398778876
1557947912992,7.275171203613281,-7.073705176664556,2.0614695687384352,-0.9900411987304688,1.2470567321777344,998.4535980224609,62.11168670654297,42.17929883758845,0.0,26.884198220027105
1557947913057,8.515042877197265,-7.073705176664556,0.34955433408899583,-2.040556640625,0.40161483764648437,998.4535980224609,62.11168670654297,42.17931604147879,0.0,26.884198220027105
1557947913131,6.829847259521484,-7.073705176664556,0.5217267081269407,-1.0446775817871095,0.17378860473632812,998.4535980224609,60.34727096557617,42.179336886989056,0.0,25.301996982030822
1557947913192,8.40457260131836,-7.073705176664556,0.6077844941856695,0.07619155883789062,-1.4416520690917969,998.4535980224609,58.54560852050781,42.1793566721639,0.0,26.03144372620182
1557947913258,7.791148223876953,-7.073705176664556,0.5789779658257497,-2.032473449707031,-2.45489501953125,998.4535980224609,58.54560852050781,42.17938492590487,0.0,31.014033505553307
1557947913326,8.707093505859376,-7.073705176664556,0.27377493204192804,-1.457369384765625,-1.3934523010253907,998.4535980224609,61.986385345458984,42.179403738682076,0.0,30.370278797557752
1557947913393,9.08475814819336,-7.073705176664556,0.2068594040905778,-0.91729248046875,-1.6863931274414063,998.4535980224609,63.27762985229492,42.1794232042693,0.0,28.06179973983887
1557947913457,11.009306030273438,-7.073705176664556,1.3181624519482522,1.5025753784179687,2.459235992431641,998.4535980224609,63.27762985229492,42.1794413906003,0.0,30.03029470553618
1557947913527,15.284565582275391,-7.073705176664556,1.6346212281966068,5.15213607788086,2.6015899658203128,998.4535980224609,68.48165893554688,42.17946304159545,0.0,28.73320601815399
1557947913596,11.257190551757812,-7.073705176664556,1.279058182359614,0.06780899047851563,0.8672964477539062,998.4535980224609,70.01412963867188,42.179458087391666,0.0,29.921114877869496
1557947913658,7.1226383972167975,-7.073705176664556,1.2119988474279513,1.0412347412109375,0.9851014709472656,998.4535980224609,68.28059387207031,42.17946235123533,,28.715729355458784
1557947913732,7.473658447265626,-7.073705176664556,0.3340125181714231,0.3884422302246094,0.26435028076171874,998.4535980224609,66.48086547851562,42.1794618431729,0.0,25.622928644564745
1557947913792,7.101981353759766,-7.073705176664556,0.4325317908370955,0.18411712646484377,-1.1255094909667969,998.4716033935547,66.48086547851562,45.788940162867725,0.0,24.99687082618404
1557947913858,9.41766586303711,-7.073705176664556,0.7820335497553196,2.508782958984375,-1.0409353637695313,998.4716033935547,67.93086242675781,45.78896413918775,0.0,26.273658565927324
1557947913926,8.458310852050781,-7.073705176664556,0.4096886588180846,0.4571493530273438,-0.43304946899414065,998.4716033935547,66.639404296875,45.78898932545955,0.0,27.641761323903307
1557947913991,8.179291076660157,-7.073705176664556,0.48994420740252487,2.3930735778808594,-1.6845968627929688,998.4716033935547,64.90481567382812,45.7890107907524,0.0,30.051805125037806
1557947914057,15.90906692504883,-7.073705176664556,2.169897646823806,-1.6275654602050782,0.5652246093750001,998.4716033935547,61.71603012084961,45.78902998207635,0.0,33.16599302093861
1557947914131,10.036329345703125,-7.073705176664556,1.486622568984179,-3.950435028076172,3.107537841796875,998.4716033935547,60.6724853515625,45.78905268215956,0.0,31.85258765296585
1557947914192,16.242423706054687,-7.073705176664556,1.6184604262839934,0.1866618347167969,0.4439767456054688,998.4716033935547,57.36211395263672,45.78905352389773,,28.727388274726685
1557947914257,6.688990173339844,-7.073705176664556,2.0686918116967274,-1.2599299621582032,0.726888427734375,998.4716033935547,51.687049865722656,45.78905223257441,0.0,28.247764624755458
1557947914332,7.2793624877929695,-7.073705176664556,0.41498473891522464,-1.2039463806152344,1.5361056518554688,998.4716033935547,51.687049865722656,45.7890553561782,0.0,27.723217067229196
1557947914393,5.936205596923829,-7.073705176664556,0.5843344859241337,-0.31524444580078126,-0.7475454711914062,998.4716033935547,50.1099967956543,45.78905563437658,0.0,28.920946026904804
1557947914457,6.5327151489257815,-7.073705176664556,0.6763029251069649,-0.8175997924804688,-2.8897407531738284,998.4716033935547,50.1099967956543,45.789052060714845,0.0,33.78397900948138
1557947914531,9.972711639404297,-7.073705176664556,0.9437573982508158,-1.3380674743652345,-0.5188211059570312,998.4716033935547,53.40920639038086,45.78905477678854,0.0,29.858753573083938
1557947914593,12.486434326171876,-7.073705176664556,0.8614645473152945,-0.7107220458984376,-1.6087046813964845,998.4716033935547,56.945945739746094,45.78905343493023,,34.01400540781544
1557947914657,11.567195892333984,-7.073705176664556,1.1229892183897363,2.531236267089844,1.5313156127929688,998.4716033935547,60.15190887451172,45.78905295057199,48.8330078125,32.05204363948145
1557947914729,16.26547576904297,-7.073705176664556,1.176053550418366,1.9956500244140627,1.1837384033203127,998.4716033935547,63.566200256347656,47.16144615997781,31.2548828125,38.15511337362764
1557947914792,9.93109817504883,-7.073705176664556,1.4741748387715703,-0.9214837646484375,0.9286688232421876,998.4888458251953,63.566200256347656,47.16145761266324,31.2548828125,29.960736544852754
1557947914857,9.055419158935548,-7.073705176664556,0.6360496022248524,1.0127938842773438,1.4958393859863282,998.4888458251953,62.17143249511719,47.16147742613595,43.65234375,29.88112840268352
1557947914929,5.732628936767578,-7.073705176664556,1.174762185918907,1.6178356933593752,-1.149459686279297,998.4888458251953,62.17143249511719,47.16150069793385,0.0,32.50907699700856
1557947914992,8.331075439453125,-7.073705176664556,0.46771985245845854,0.4800517272949219,-0.4339476013183594,998.4888458251953,64.81608581542969,47.161525307692685,0.0,28.2020145948564
1557947915057,6.975793762207031,-7.073705176664556,0.4078890237904094,1.7970130920410157,-1.2159214782714844,998.4888458251953,65.8178939819336,47.16155523647481,0.0,27.634279935629372
1557947915128,8.181985473632812,-7.073705176664556,0.5221772356813233,2.4740551757812503,0.5620811462402344,998.4888458251953,66.86770629882812,47.16157726908615,0.0,33.259259557714664
1557947915193,15.39952651977539,-7.073705176664556,1.9694571170876256,-0.29458740234375,0.11211685180664063,998.4888458251953,64.63915252685547,47.16159906025317,0.0,31.126050015345747
1557947915257,12.551698608398437,-7.073705176664556,1.23229731943243,-4.472848663330078,0.5547463989257813,998.4888458251953,60.234031677246094,47.16160222317045,,29.65201701025912
1557947915328,12.605736236572266,-7.073705176664556,0.9578262254182348,0.3769161987304688,-0.7108717346191407,998.4888458251953,59.225074768066406,47.16159785033575,0.0,29.206450014067876
1557947915390,6.268963623046876,-7.073705176664556,1.6139331704671172,-0.11241622924804688,0.43529479980468755,998.4888458251953,57.58218765258789,47.16160101339666,0.0,28.686444383948256
1557947915457,7.017556915283204,-7.073705176664556,0.4095715624979203,-1.5678396606445313,-0.15777191162109375,998.4888458251953,57.58218765258789,47.16159833184863,0.0,27.259116322950483
1557947915529,7.690707092285157,-7.073705176664556,0.9973469613079652,0.7155120849609375,-3.5149905395507814,998.4888458251953,56.420528411865234,47.161600652039304,0.0,28.102325179950842
1557947915593,6.662345581054688,-7.073705176664556,0.230948140551795,0.12005035400390626,-2.7406507873535157,998.4888458251953,56.420528411865234,47.16159915640668,0.0,34.20450859106068
1557947915657,8.071515197753907,-7.073705176664556,0.5822603319916904,-0.9978250122070313,-1.0696755981445314,998.4888458251953,57.71369934082031,47.16160077789984,,28.830933585756902
1557947915729,13.256133728027345,-7.073705176664556,1.5235712937555086,0.10822494506835938,1.0557545471191407,998.4888458251953,59.08440017700195,47.161598302790374,,33.78761175316373
1557947915791,13.83602783203125,-7.073705176664556,1.3080093946082056,3.1078372192382813,4.06868911743164,998.5164642333984,63.47871398925781,47.161599701272145,196.298828125,29.772662124272927
1557947915857,12.272080078125,-7.073705176664556,1.24397157709567,2.6872119140625,-1.6592994689941407,998.5164642333984,65.1464614868164,47.16159767746877,,31.61068385471175
1557947915930,8.753946075439453,-7.073705176664556,1.115783161127805,0.621357879638672,0.4926255798339844,998.5164642333984,61.6552848815918,47.16159824879502,0.0,26.444385894678387
1557947915990,7.025939483642579,-7.073705176664556,0.6975887061763529,1.6588504028320312,0.8758287048339845,998.5164642333984,60.48463439941406,47.16159959922841,0.0,28.29303772831025
1557947916057,5.748346252441406,-7.073705176664556,0.724218936623582,1.1671229553222657,-1.3931529235839843,998.5164642333984,57.25186538696289,47.1615987480441,0.0,28.027737252919756
1557947916126,8.193062438964844,-7.073705176664556,0.6323718487023771,1.8657202148437502,-2.3465203857421875,998.5164642333984,54.36881637573242,47.161599508823194,0.0,29.800033715837465
1557947916190,9.787247314453126,-7.073705176664556,0.8427744741281485,2.9075537109375,0.38993911743164067,998.5164642333984,53.034812927246094,47.16159660633285,0.0,33.408405498123315
1557947916257,12.055181121826173,-7.073705176664556,1.077107884473015,-0.53887939453125,0.7336244201660157,998.5164642333984,52.01787185668945,47.161598212134024,0.0,31.18925752825777
1557947916326,12.919932861328126,-7.073705176664556,1.1117753327778503,-3.367098083496094,2.5655149841308593,998.5164642333984,48.128116607666016,47.161600425355246,,29.99130541287371
1557947916390,13.896651763916017,-7.073705176664556,0.9623099038117489,0.28650421142578125,-0.2716850280761719,998.5164642333984,42.576744079589844,47.16160094801852,0.0,27.14329759745233
1557947916457,6.653214569091797,-7.073705176664556,1.7335831228254504,-0.024998016357421875,0.8662486267089844,998.5164642333984,38.676937103271484,47.1616020648996,0.0,28.992731873176037
1557947916525,8.656648406982422,-7.073705176664556,0.5256068476549319,-1.5447875976562502,-0.7930508422851563,998.5164642333984,37.204002380371094,43.22632946793815,0.0,26.39486489268586
1557947916590,8.086633758544922,-7.073705176664556,0.23123601809767805,-0.501606903076172,-0.8259823608398438,998.5164642333984,33.27570343017578,43.2263483689412,0.0,25.82063362911709
1557947916657,8.89270751953125,-7.073705176664556,0.49331906030791184,-0.7620652770996094,-2.3041584777832034,998.5164642333984,31.92041778564453,43.22638201381358,0.0,25.61101383649056
1557947916725,9.682764587402344,-7.073705176664556,0.759977515962555,1.2882211303710938,-3.980073394775391,998.5164642333984,28.817447662353516,43.22640240990979,0.0,21.13943352306837
1557947916790,9.901609497070313,-7.073705176664556,0.3324867978190686,-0.39353164672851565,-3.8279896545410157,998.5501861572266,26.528581619262695,43.226421466907816,0.0,33.32034277027518
1557947916857,11.835887145996095,-7.073705176664556,1.9288969618093172,-0.4207749938964844,3.693868560791016,998.5501861572266,26.528581619262695,43.22644286647901,,36.90196080028514
1557947916926,10.670560455322267,-7.073705176664556,2.1155728890350827,4.456831970214844,8.77729751586914,998.5501861572266,27.785486221313477,43.22647415684176,,32.595938788859485
1557947916990,12.384047241210938,-7.073705176664556,1.931641025156443,0.264649658203125,0.08951385498046875,998.5501861572266,21.715988159179688,43.22648312581327,0.0,26.45422269349092
1557947917057,9.428144073486328,-7.073705176664556,0.6975673773192573,1.9887643432617188,1.3406121826171875,998.5501861572266,16.860750198364258,43.22650278410505,0.0,29.074113607745858
