timestamp,AmbientLightSensor,DecibelSource,PitchSensor,LinearAccelerometerSensor,AccX,AccY,AccZ,BarometerSensor,CompassSensor,MagneticRotationSensor
1557947877626,,24.032810558621183,0.0,,,,,,,
1557947877664,,30.204700381052923,,,,,,,,
1557947877704,,21.797474685180916,0.0,,,,,,,
1557947877709,,,,2.180397929699058,1.2641770839691162,2.6193366050720215,7.235498428344727,1002.982421875,291.13056056097946,41.35449581793615
1557947877724,4.0,,,,,,,,,
1557947877742,,,,,,,,1002.982421875,,
1557947877744,,19.687475976717657,,,,,,,,
1557947877765,,,,1.2401920822021224,1.1779831647872925,3.071854591369629,8.049551963806152,,310.4389316087152,41.88730476734151
1557947877783,,17.93751592811743,,,,,,,,
1557947877784,,,0.0,,,,,,,
1557947877823,,20.183239627802752,,,,,,,,
1557947877826,,,,1.4578797679562474,0.706311047077179,2.8300328254699707,10.644946098327637,,294.09717126470446,41.23383946379714
1557947877840,4.0,,,,,,,,,
1557947877841,,,,,,,,1002.971435546875,,
1557947877863,,20.78770720937273,,,,,,,,
1557947877884,,,,2.3319273754608716,0.31604427099227905,3.2969164848327637,,,23.90744648196528,41.53235365152335
1557947877885,,,,,,,11.447028160095215,,,
1557947877903,,22.962048781520927,0.0,,,,,,,
1557947877941,4.0,,,,,,,,,
1557947877943,,16.9764837043674,,,,,,,,
1557947877945,,,,2.457771517247617,0.9098244309425354,3.229876756668091,11.73194694519043,1002.980224609375,329.27911367941414,41.62659627478582
1557947877983,,15.322674847125779,0.0,,,,,,,
1557947878005,,,,2.077280432233603,-0.2849186956882477,3.035940408706665,11.013664245605469,,56.47369452948499,42.02651765860167
1557947878024,,18.65714172248237,,,,,,,,
1557947878040,4.0,,,,,,,,,
1557947878043,,,,,,,,1002.980224609375,,
1557947878063,,12.851335896087114,0.0,,,,,,,
1557947878065,,,,1.4286247430798324,0.019154198467731476,3.624932050704956,9.536396980285645,,13.887739115795966,42.33606911691417
1557947878104,,17.0610984121196,,,,,,,,
1557947878130,,,,0.6954457230399324,0.21069619059562683,2.5020172595977783,8.918673515319824,,2.2541333942768915,41.628672306641676
1557947878146,,18.295480790945255,,,,,,,,
1557947878153,,,,,,,,1002.98828125,,
1557947878154,4.0,,,,,,,,,
1557947878184,,19.486286133311058,0.0,,,,,,,
1557947878186,,,,3.0448122524766665,0.1005595400929451,2.667222023010254,6.454965114593506,,355.5037581863669,42.18511824346931
1557947878224,,39.37706053940647,,,,,,,,
1557947878245,,,,,,,,1002.999755859375,,
1557947878246,,,,1.1455020367801163,0.337592750787735,2.693559169769287,8.324893951416016,,340.2858422910319,41.75310374699337
1557947878259,4.0,,,,,,,,,
1557947878264,,39.362055428469404,,,,,,,,
1557947878267,,,160.2490234375,,,,,,,
1557947878304,,38.33598566814935,160.2490234375,,,,,,,
1557947878309,,,,2.6271196617460286,0.5770202279090881,2.3703320026397705,6.790163516998291,,332.3904560916517,42.62720196168025
1557947878343,,38.460267628665086,160.2490234375,,,,,1002.999755859375,,
1557947878348,,,158.35042317708331,,,,,,,
1557947878359,4.0,,,,,,,,,
1557947878365,,,,1.5754128747528027,0.8523618578910828,2.2147042751312256,,,296.2242082854623,42.12563887782804
1557947878366,,,,,,,7.963357925415039,,,
1557947878384,,38.61158143011402,158.35042317708331,,,,,,,
1557947878424,,36.27978076364475,158.35042317708331,,,,,,,
1557947878425,,,,4.005822235932178,1.2761484384536743,1.6496553421020508,5.590631484985352,,280.5144658359203,43.02489413568573
1557947878443,,,,,,,,1003.005615234375,,
1557947878459,4.0,,,,,,,,,
1557947878464,,33.738202143392265,158.35042317708331,,,,,,,
1557947878468,,,158.2958984375,,,,,,,
1557947878485,,,,,,,,,203.22210541433174,
1557947878486,,,,2.839825615700353,1.2474172115325928,1.2546000480651855,11.557164192199707,,,43.188454860915314
1557947878504,,27.1491776685693,158.2958984375,,,,,,,
1557947878544,,20.330543003545852,158.2958984375,,,,,,,
1557947878548,,,,3.606706830316414,1.8531687259674072,,,1002.999755859375,219.5489759459519,43.66697654278906
1557947878549,,,,,,1.8842942714691162,12.723176002502441,,,
1557947878562,4.0,,,,,,,,,
1557947878584,,15.359597099827413,,,,,,,,
1557947878605,,,,,,,,,186.3684223920285,
1557947878606,,,,3.9351685903028915,0.4381522834300995,2.142875909805298,13.446247100830078,,186.05543580350184,43.96882550070976
1557947878624,,17.010625677285432,0.0,,,,,,,
1557947878643,,,,,,,,1003.005859375,,
1557947878664,,16.731547015145633,,,,,,,,
1557947878665,,,,,,,,,330.38370553236695,43.03137917336916
1557947878666,5.0,,,1.1166447207918144,0.6919454336166382,3.134105682373047,10.108628273010254,,,
1557947878675,5.0,,,,,,,,,
1557947878704,,34.06968162100793,,,,,,,,
1557947878725,,,,,,,,,303.7371670705716,
1557947878726,,,,0.745138825468606,0.7206767201423645,2.731867551803589,9.73272705078125,,,43.65975925675876
1557947878743,,,,,,,,1003.00830078125,,
1557947878746,,41.30492747270601,,,,,,,,
1557947878749,,,166.7333984375,,,,,,,
1557947878784,,41.65844934965009,166.7333984375,,,,,,,
1557947878785,,,,0.9525753687779052,0.36871832609176636,2.4948344230651855,8.650514602661133,,336.20584928089227,43.77060533376241
1557947878791,5.0,,,,,,,,,
1557947878824,,40.87242886485782,166.7333984375,,,,,,,
1557947878832,,,158.1396484375,,,,,,,
1557947878845,,,,,,,,1003.01123046875,,
1557947878846,4.0,,,2.8123403715821995,0.4261809289455414,2.0925962924957275,6.69199800491333,,331.52733703906824,43.38464488708135
1557947878864,,41.05588613692704,158.1396484375,,,,,,,
1557947878892,4.0,,,,,,,,,
1557947878904,,41.44070894211918,158.1396484375,,,,,,,
1557947878907,,,158.2958984375,,,,,,,
1557947878909,,,,3.2136869145258578,0.4142095446586609,2.0207679271698,6.270605564117432,,321.3209392585413,42.932251118947875
1557947878943,,,,,,,,1003.011962890625,,
1557947878944,,41.460005563936434,158.2958984375,,,,,,,
1557947878965,,,,,,,,,232.56310910746748,
1557947878966,,,,2.054108164523597,0.8332076072692871,1.6616266965866089,7.723930358886719,,219.8593943833506,43.32469247411475
1557947878984,,35.26976727722043,158.2958984375,,,,,,,
1557947879008,4.0,,,,,,,,,
1557947879025,,25.472324509150805,158.2958984375,,,,,,218.45581782966968,
1557947879026,,,,1.6047909830484721,1.3168511390686035,2.0351336002349854,10.666494369506836,,,43.69367644500552
1557947879029,,,159.7802734375,,,,,,,
1557947879042,,,,,,,,1003.013427734375,,
1557947879064,,16.576270484650852,159.7802734375,,,,,,,
1557947879085,,,,3.3442269813947108,0.25139886140823364,2.535537004470825,,,169.50873882116838,44.251939835789294
1557947879086,,,,,,,12.792610168457031,,,
1557947879104,,21.344539476534287,159.7802734375,,,,,,,
1557947879124,4.0,,,,,,,,,
1557947879144,,14.861363867433948,,,,,,,,
1557947879145,,,,,,,,1003.01318359375,293.3046439247404,
1557947879146,,,,3.326461591215878,0.8499675393104553,3.5794408321380615,12.57233715057373,,297.0352181173205,43.88412413404019
1557947879184,,14.212624717685456,0.0,,,,,,,
1557947879205,,,,,,,,,118.13808011118039,43.898518440754465
1557947879206,5.0,,,4.461278257700023,-1.1564347743988037,2.789330244064331,13.700040817260742,,,
1557947879224,5.0,16.07941069522532,,,,,,,,
1557947879243,,,,,,,,1003.01953125,,
1557947879264,,14.978178770698287,,,,,,,,
1557947879265,,,,2.6887640530880934,0.12929083406925201,3.814079761505127,7.774210453033447,,0.029290916075012774,43.00736136835382
1557947879304,,13.760159238767681,0.0,,,,,,,
1557947879325,5.0,,,1.078365022782281,0.2705530524253845,,,,330.6279974933162,43.383692302251674
1557947879326,,,,,,2.3200523853302,8.59305191040039,,,
1557947879344,,12.242058489269871,,,,,,1003.031982421875,,
1557947879385,,16.21139762731235,0.0,,,,,,,
1557947879386,,,,3.4293300294647597,0.18196488916873932,2.7031362056732178,6.134131908416748,,0.748448233907709,43.394311176948776
1557947879424,,16.03749317444341,,,,,,,,
1557947879428,5.0,,,,,,,,,
1557947879446,,,,1.847502042694408,0.04070267081260681,2.3368122577667236,,1003.032958984375,6.882973298805439,44.014077778837546
1557947879447,,,,,,,7.690410614013672,,,
1557947879465,,18.638722438002958,0.0,,,,,,,
1557947879505,,16.10725328441027,,,,,,,,
1557947879506,,,,1.8153392652264548,0.2298503816127777,2.5283541679382324,7.604216575622559,,14.865867454945032,44.04040709698476
1557947879529,5.0,,,,,,,,,
1557947879543,,,,,,,,1003.0322265625,,
1557947879545,,17.185007473798834,,,,,,,,
1557947879565,,,,,,,,,334.7316314957205,
1557947879566,,,,0.457373922621466,0.5530774593353271,3.134105682373047,9.75427532196045,,189.29612833824115,44.07648286411484
1557947879584,,15.666953062737502,0.0,,,,,,,
1557947879625,,15.694906889769038,,,,,,,,
1557947879626,,,,3.126202771464216,0.0885881707072258,2.60018253326416,12.414315223693848,,160.52579696817267,44.337239281497865
1557947879640,5.0,,,,,,,,,
1557947879642,,,,,,,,1003.04052734375,,
1557947879664,,17.170153658614375,0.0,,,,,,,
1557947879685,,,,3.120358491500378,1.0343266725540161,,,,159.8442533720321,45.023511727534355
1557947879686,,,,,,3.0622775554656982,12.038414001464844,,,
1557947879704,,16.693126630092582,,,,,,,,
1557947879741,5.0,,,,,,,,,
1557947879744,,15.325059432911969,0.0,,,,,,,
1557947879745,,,,3.4236791026646265,-0.6416656374931335,2.1165390014648438,12.636981964111328,1003.046875,149.80383431097835,44.932428108429086
1557947879784,,20.911982295085046,,,,,,,,
1557947879804,,,,,,,,,0.48984932116394475,
1557947879805,,,,1.9659733037639833,0.4022381603717804,3.2418479919433594,7.50126314163208,,346.08651021725944,45.05208916158803
1557947879824,,12.368604554848856,,,,,,,,
1557947879844,,,,,,,,1003.047607421875,,
1557947879857,5.0,,,,,,,,,
1557947879864,,27.530199541373193,0.0,,,,,,,
1557947879865,,,,1.0260653355897298,0.41181525588035583,1.733454942703247,9.241900444030762,,182.05898283710076,45.30353606056162
1557947879904,,18.873627353912696,,,,,,,,
1557947879925,,,,2.548152673312333,0.9816526770591736,2.1859729290008545,7.00085973739624,,176.86602734980934,45.317440763198995
1557947879944,,17.011262670293064,0.0,,,,,,,
1557947879945,,,,,,,,1003.05078125,,
1557947879958,5.0,,,,,,,,,
1557947879984,,20.245712935831005,,,,,,,,
1557947879985,,,,2.7135118908752522,1.4174107313156128,2.353572130203247,6.847625732421875,,237.0275939565546,45.5330811070782
1557947880027,,17.06898645080886,0.0,,,,,,,
1557947880048,,,,1.795522827895648,1.4245935678482056,2.722290515899658,7.666468143463135,1003.066650390625,221.33074007397647,45.23232101797179
1557947880059,5.0,,,,,,,,,
1557947880064,,18.252766800030113,,,,,,,,
1557947880104,,25.356141321821994,0.0,,,,,,,
1557947880108,,,,0.9249738560667774,,,,,181.8182459896144,45.27837752407623
1557947880109,,,,,0.9840469360351562,2.475680112838745,9.68484115600586,,,
1557947880143,,,,,,,,1003.065185546875,,
1557947880146,,22.58838646646735,,,,,,,,
1557947880166,,,,3.363842925025359,1.3838908672332764,4.956148624420166,12.095876693725586,,177.32926443969794,44.70016110779066
1557947880175,5.0,,,,,,,,,
1557947880184,,25.0376366982208,,,,,,,,
1557947880225,,,,,,,,,150.29211087436423,
1557947880226,,23.869123016992795,0.0,,-1.240234375,3.1077687740325928,14.044816017150879,,,43.50331071501473
1557947880227,,,,5.3292675415386,,,,,,
1557947880243,,,,,,,,1003.058837890625,,
1557947880264,,24.719773651881894,,,,,,,,
1557947880275,5.0,,,,,,,,,
1557947880286,,,,2.640169002729953,-0.73504239320755,4.982485771179199,10.482134819030762,,130.39292846342235,43.009914713023115
1557947880304,,34.456177042819995,0.0,,,,,,,
1557947880345,,16.389644150785166,,,,,,,,
1557947880346,,,,2.7041562268761448,-1.2689656019210815,3.902667999267578,10.891555786132812,1003.052978515625,143.00227729396627,43.12506013439465
1557947880384,,14.693460493192593,0.0,,,,,,,
1557947880391,5.0,,,,,,,,,
1557947880405,,,,,,,,,120.46325408957117,42.897647495297534
1557947880406,,,,2.5992790029437094,-1.2569942474365234,4.427014350891113,7.774210453033447,,,
1557947880424,,17.774901142673627,,,,,,,,
1557947880443,,,,,,,,1003.049560546875,,
1557947880464,,15.134108909850632,,,,,,,,
1557947880466,,,,1.7172388542903185,-0.541106104850769,3.3615617752075195,7.836461544036865,,152.02359114971912,41.89658504827065
1557947880492,5.0,,,,,,,,,
1557947880504,,12.836754945581099,0.0,,,,,,,
1557947880526,,,,1.956756206989496,-0.3304099142551422,3.9170336723327637,,,145.6731271462514,43.25017989316364
1557947880527,,,,,,,7.429434776306152,,,
1557947880544,,18.403451117891,,,,,,,,
1557947880545,,,,,,,,1003.055908203125,,
1557947880584,,16.11014833980889,0.0,,,,,,,
1557947880585,,,,,,,,,155.93108773237006,
1557947880586,,,,1.0944199826131171,-0.21069619059562683,3.656057596206665,8.20278549194336,,154.6749749628697,43.64297706098088
1557947880591,5.0,,,,,,,,,
1557947880624,,16.41635964407735,,,,,,,,
1557947880646,,,,,0.028731297701597214,4.498842239379883,8.341653823852539,1003.053466796875,152.02363213085414,43.71945898138356
1557947880647,,,,0.99137641014121,,,,,,
1557947880664,,15.269075072193388,0.0,,,,,,,
1557947880692,5.0,,,,,,,,,
1557947880705,,17.657394947268138,,,,,,,,
1557947880706,,,,1.6008269318838706,,,,,155.66275692063695,44.70482990413013
1557947880707,,,,,-0.6392713785171509,3.818868398666382,,,,
1557947880743,,,,,,,,1003.052001953125,,
1557947880744,,15.575863056361992,,,,,,,,
1557947880766,,,,1.786220775709547,0.33280420303344727,4.501236438751221,8.30095100402832,,155.01566479866995,45.48704253371899
1557947880784,,17.915768815771287,0.0,,,,,,,
1557947880793,5.0,,,,,,,,,
1557947880827,,14.989275659528097,,,,,,,,
1557947880830,,,,2.788064045995492,-0.42139238119125366,2.0351336002349854,10.707197189331055,,161.25068494478612,46.731142227462854
1557947880844,,,,,,,,1003.052734375,,
1557947880864,,18.6571081816964,0.0,,,,,,,
1557947880886,,,,,,,,,164.455928797733,
1557947880887,,,,1.5197862739632904,0.9481328129768372,2.3775148391723633,8.832479476928711,,,47.214508816233426
1557947880904,,30.382530739529507,,,,,,,,
1557947880909,5.0,,,,,,,,,
1557947880947,,15.837242797288614,0.0,2.5498875312686127,0.797293484210968,1.4030450582504272,10.388758659362793,1003.05810546875,160.3783468443704,48.18366103860067
1557947880984,,15.267464866299708,,,,,,,,
1557947881012,6.0,,,1.4755597620320653,0.0885881707072258,2.171607255935669,9.026415824890137,,150.16834784660358,48.955404159409554
1557947881024,,16.863555323061036,,,,,,,,
1557947881048,,,,,,,,1003.059814453125,,
1557947881064,,13.254663277430385,0.0,,,,,,,
1557947881067,,,,1.496342810076399,-0.08619388937950134,1.9633053541183472,9.481328010559082,,147.35592183320244,49.699523342341394
1557947881104,,14.320926297859735,,,,,,,,
1557947881114,6.0,,,,,,,,,
1557947881130,,,,,,,,,144.8487369738092,
1557947881131,,,,0.6798903502386437,0.8954587578773499,2.602576732635498,9.502876281738281,,,51.091715881420214
1557947881144,,17.32106432996806,0.0,,,,,,,
1557947881148,,,,,,,,1003.06982421875,,
1557947881184,,15.790508616899114,,,,,,,,
1557947881186,,,,,,,,,140.59034625273802,
1557947881187,7.0,,,0.8791968988279713,1.0127782821655273,2.5283541679382324,9.483722686767578,,135.69091495730447,50.83289084499864
1557947881215,7.0,,,,,,,,,
1557947881224,,20.682763355993,0.0,,,,,,,
1557947881247,,,,0.6950346359363239,0.5937801599502563,2.70074200630188,8.889942169189453,1003.06689453125,132.94214630696786,53.26384770557753
1557947881264,,20.16500371014157,,,,,,,,
1557947881304,,16.937837602890106,,,,,,,,
1557947881309,,,,,,,,,127.94125938160295,
1557947881310,,,,0.4865910841790597,0.25139886140823364,2.755810260772705,9.459779739379883,,,51.99899230241793
1557947881328,7.0,,,,,,,,,
1557947881344,,20.316969361864437,0.0,,,,,,,
1557947881346,,,,,,,,1003.065185546875,,
1557947881366,,,,,,,,,124.19955881086491,
1557947881367,13.0,,,0.8300161181458999,-0.016759924590587616,2.485257148742676,9.40231704711914,,117.88478937599967,53.509774866145605
1557947881384,,20.385160837953514,,,,,,,,
1557947881424,,21.818322496993922,0.0,,,,,,,
1557947881427,13.0,,,1.3122780930165887,-0.18675343692302704,2.1213274002075195,9.241900444030762,,119.15648863718599,53.80450983798904
1557947881444,,,,,,,,1003.06494140625,,
1557947881464,,18.60195357700635,,,,,,,,
1557947881488,,,,1.8208189820423117,-0.3495641350746155,1.7071179151535034,9.536396980285645,,118.1181496191823,54.103997355266955
1557947881504,,17.985660920381804,0.0,,,,,,,
1557947881527,13.0,,,,,,,,,
1557947881544,,17.625271612911092,,,,,,,,
1557947881548,21.0,,,1.9223184461648326,-0.8356019258499146,1.594586968421936,10.015251159667969,1003.06787109375,113.895870108253,54.91167059743224
1557947881584,,16.234309704688194,,,,,,,,
1557947881609,,,,1.786188207135467,-0.8523618578910828,1.1731946468353271,9.730332374572754,,109.37608121745626,54.61532635556439
1557947881625,,16.869785835204176,0.0,,,,,,,
1557947881642,21.0,,,,,,,,,
1557947881645,,,,,,,,1003.069091796875,,
1557947881664,,18.107147386244932,,,,,,,,
1557947881667,,,,1.4806246310580218,,,,,94.1417199341472,55.211834033814505
1557947881668,,,,,-1.0008069276809692,1.283331274986267,10.237918853759766,,93.96191520424657,
1557947881704,,16.902011044624267,0.0,,,,,,,
1557947881728,28.0,,,1.1658397139310346,-0.40463244915008545,1.6233183145523071,10.11102294921875,,91.9030093204596,55.17351344070123
1557947881744,28.0,,,,,,,,,
1557947881745,,14.868511823978132,,,,,,,,
1557947881748,,,,,,,,1003.074462890625,,
1557947881784,,13.904704838999095,,,,,,,,
1557947881785,,,0.0,,,,,,,
1557947881787,,,,,,,,,77.30563147914592,
1557947881788,,,,1.2870773751386553,0.019154198467731476,2.576239585876465,9.172467231750488,,72.1528479768291,54.66849535631112
1557947881824,,15.924449115246764,,,,,,,,
1557947881844,28.0,,,,,,,,,
1557947881848,,,,1.4729090304178996,-0.33280420303344727,2.6169424057006836,8.47333812713623,1003.082763671875,72.13297895653352,54.9655320824065
1557947881864,,13.23693980299925,,,,,,,,
1557947881904,,15.765189426502484,0.0,,,,,,,
1557947881913,21.0,,,2.4296414778787945,0.04309694468975067,2.2410411834716797,7.3911261558532715,,65.87708575231375,54.73664317831387
1557947881944,,16.962632492638384,,,,,,,,
1557947881945,21.0,,,,,,,,,
1557947881947,,,,,,,,1003.087646484375,,
1557947881968,,,,,,,,,62.126061973358674,
1557947881969,,,,2.155093560190329,-0.05746259540319443,2.3990633487701416,7.635342597961426,,,54.99617622287828
1557947881984,,17.087801726621517,0.0,,,,,,,
1557947882024,,15.650228051621491,,,,,,,,
1557947882028,,,,,,,,,60.772714630834,
1557947882029,,,,2.1586849451561587,-0.4357580244541168,2.6408851146698,7.553936958312988,,,53.26949246221525
1557947882046,21.0,,,,,,,1003.076171875,,
1557947882064,,14.673949886810082,,,,,,,,
1557947882065,,,0.0,,,,,,,
1557947882089,12.0,,,1.2389311904888969,0.026337023824453354,2.4613144397735596,8.832479476928711,,58.57328443506316,53.82835859332825
1557947882104,,17.77449016695375,,,,,,,,
1557947882144,,26.39885531737218,,,,,,,,
1557947882149,,,,1.0706211953616085,-0.19393625855445862,2.8707354068756104,,1003.080322265625,60.8572450520021,54.52656456202527
1557947882150,,,,,,,9.170072555541992,,,
1557947882162,12.0,,,,,,,,,
1557947882184,,30.26818742622023,0.0,,,,,,,
1557947882212,,,,0.9805737929288679,,,,,60.55155310550896,53.02469157257382
1557947882213,,,,,-0.004788549616932869,1.9992194175720215,10.319324493408203,,,
1557947882225,,24.420920775620544,,,,,,,,
1557947882249,,,,,,,,1003.083984375,,
1557947882262,12.0,,,,,,,,,
1557947882264,,28.41182767443277,0.0,,,,,,,
1557947882269,10.0,,,3.0434817468137503,0.11731946468353271,2.5594797134399414,12.495719909667969,,63.744529938706535,51.51498778769495
1557947882304,,29.485839958239705,,,,,,,,
1557947882329,,,,3.9445487010114197,-0.4357580244541168,1.381496548652649,13.300196647644043,,71.93545671592591,51.64508173510376
1557947882344,,24.160798313257878,0.0,,,,,,,
1557947882345,,,,,,,,1003.087646484375,,
1557947882362,10.0,,,,,,,,,
1557947882384,,20.539034054957046,,,,,,,,
1557947882389,,,,3.9735171305199684,-0.06703969836235046,2.291321039199829,,,70.77000104727915,51.79056574201458
1557947882390,,,,,,,13.415122032165527,,,
1557947882424,,20.815567099260704,,,,,,,,
1557947882449,,,,,,,,1003.090576171875,,
1557947882450,12.0,,,3.301705676764142,-1.532335877418518,0.9696813225746155,11.990528106689453,,80.37403249207159,51.975654507940355
1557947882464,,21.934101580559833,0.0,,,,,,,
1557947882478,12.0,,,,,,,,,
1557947882504,,17.333637927300693,,,,,,,,
1557947882513,,,,2.3196057614429413,0.0,2.238646984100342,7.156487464904785,,71.01622253666892,51.56077536702067
1557947882544,,15.95486223794313,0.0,,,,,,,
1557947882549,,,,,,,,1003.097412109375,,
1557947882569,,,,,,,,,79.74710308853446,52.26575164561713
1557947882570,,,,2.298675661694894,-0.10295381397008896,1.2785427570343018,7.613793849945068,,,
1557947882578,12.0,,,,,,,,,
1557947882584,,16.100671920177298,,,,,,,,
1557947882625,,17.68655716469256,0.0,,,,,,,
1557947882630,,,,,,,,,73.27452896308523,
1557947882631,9.0,,,3.74833896725306,0.24661029875278473,2.0279507637023926,5.724710941314697,,,52.614525399313095
1557947882648,,,,,,,,1003.09619140625,,
1557947882664,,15.857036628508034,,,,,,,,
1557947882677,9.0,,,,,,,,,
1557947882690,,,,3.551290981186509,-0.1532335877418518,1.3743137121200562,6.227508544921875,,82.03077683752826,52.37449887239989
1557947882704,,13.63799519345303,0.0,,,,,,,
1557947882746,,13.252684635298163,,,,,,,,
1557947882750,,,,3.6100077549224996,0.45012366771698,2.638490915298462,4.637710094451904,1003.098876953125,84.54055033861692,52.466321010883725
1557947882778,9.0,,,,,,,,,
1557947882783,,16.46908057221787,,,,,,,,
1557947882811,4.0,,,2.1285301506231518,0.18196488916873932,1.9896423816680908,7.494080066680908,,82.13320918451092,51.95421221189716
1557947882829,,22.212693039241227,,,,,,,,
1557947882830,,,0.0,,,,,,,
1557947882847,,,,,,,,1003.098876953125,,
1557947882864,,23.597483902298997,,,,,,,,
1557947882870,,,,1.0062986137067467,0.3591412305831909,2.825244188308716,10.343267440795898,,79.81142297994847,51.62409738272919
1557947882878,4.0,,,,,,,,,
1557947882904,,28.030233416591933,0.0,,,,,,,
1557947882931,,,,6.125884634477835,-1.0965778827667236,2.2530126571655273,15.577152252197266,,84.4025600268152,50.645186717528816
1557947882946,,30.947168616576842,,,,,,,,
1557947882947,,,,,,,,1003.104736328125,,
1557947882979,4.0,,,,,,,,,
1557947882984,,23.8155197871073,0.0,,,,,,,
1557947882990,,,,,-1.0127782821655273,,,,74.95487844231343,50.99152759435582
1557947882991,,,,4.159917145784281,,3.536343812942505,13.372024536132812,,,
1557947883026,,19.66562063237211,,,,,,,,
1557947883050,,,,,,,,1003.107421875,,
1557947883051,,,,4.983646925603493,-2.5929996967315674,2.8731298446655273,13.779051780700684,,76.86578095697541,50.496942643149616
1557947883064,,20.87381764541929,,,,,,,,
1557947883083,4.0,,,,,,,,,
1557947883104,,20.69289196727846,0.0,,,,,,,
1557947883110,,,,,,,,,64.59863826422747,50.26868392121567
1557947883111,,,,3.204777435573344,-1.0295381546020508,4.146883964538574,7.8867411613464355,,,
1557947883144,,17.09511284033598,,,,,,,,
1557947883148,,,,,,,,1003.107421875,,
1557947883171,,,,2.0244650569810427,-0.8691217303276062,2.044710636138916,7.750267505645752,,69.15539213881232,51.2538355106099
1557947883184,,18.500395169332876,0.0,,,,,,,
1557947883193,4.0,,,,,,,,,
1557947883224,,22.418941817178492,,,,,,,,
1557947883230,,,,3.839544461171341,0.2777358889579773,,,,63.37701795003568,50.73903890166379
1557947883231,,,,,,1.7454262971878052,5.734288215637207,,,
1557947883247,,,,,,,,1003.106689453125,,
1557947883264,,22.816053057486553,0.0,,,,,,,
1557947883290,,,,,,,,,64.26000431536738,50.158922608682445
1557947883291,,,,3.568385699863556,0.5602602958679199,1.3383996486663818,6.143709182739258,,,
1557947883296,4.0,,,,,,,,,
1557947883304,,15.831653462287495,,,,,,,,
1557947883344,,20.254684188774412,,,,,,,,
1557947883350,,,,,,,,1003.10791015625,62.9580063350229,
1557947883351,5.0,,,2.664442734417735,0.9624984860420227,1.9369683265686035,7.01283073425293,,,50.3646286085818
1557947883384,,23.937810660988657,0.0,,,,,,,
1557947883396,5.0,,,,,,,,,
1557947883410,,,,,,,,,63.33719111698531,
1557947883411,,,,2.7104672950357647,-0.031125571578741074,1.8579572439193726,11.779831886291504,,72.83174145957167,49.74246049480537
1557947883424,,28.844556245666517,,,,,,,,
1557947883447,,,,,,,,1003.10791015625,,
1557947883464,,24.44467909783221,0.0,,,,,,,
1557947883470,,,,4.6708736303373755,-0.1652049571275711,1.7669748067855835,13.889187812805176,,74.36385534324307,49.2635067995069
1557947883504,,25.288358405194614,,,,,,,,
1557947883509,5.0,,,,,,,,,
1557947883530,4.0,,,3.9354099600098498,0.28731298446655273,2.197944164276123,13.319351196289062,,69.69742229096619,49.49985425247931
1557947883544,,15.858761908417044,0.0,,,,,,,
1557947883547,,,,,,,,1003.107666015625,,
1557947883584,,14.676299148003586,,,,,,,,
1557947883590,,,,1.512648264656311,-0.05506832152605057,1.9417568445205688,11.035212516784668,,70.66771896445817,48.684516661157524
1557947883624,,19.321992929790916,,,,,,,,
1557947883626,4.0,,,,,,,,,
1557947883650,,,,2.147172479134214,1.1253091096878052,2.5929996967315674,8.032792091369629,1003.114501953125,54.090716660148416,49.38360702031639
1557947883664,,20.73523009573792,0.0,,,,,,,
1557947883704,,18.903931343995055,,,,,,,,
1557947883711,,,,,0.3256213665008545,0.5123748183250427,8.949799537658691,,69.78978010892308,49.15410027126092
1557947883712,,,,1.5361203182849723,,,,,,
1557947883726,4.0,,,,,,,,,
1557947883744,,15.808189874562604,0.0,,,,,,,
1557947883747,,,,,,,,1003.114501953125,,
1557947883771,,,,,,,,,63.75273299589975,
1557947883772,,,,2.558103558124048,0.9960182905197144,0.821236252784729,7.640130996704102,,,48.97955326728638
1557947883784,,19.11239163836815,,,,,,,,
1557947883825,,17.65084548920432,0.0,,,,,,,
1557947883831,,,,2.611424537767668,1.2785427570343018,1.082212209701538,,,59.285639014549645,49.09030159179035
1557947883832,4.0,,,,,,,,,
1557947883849,,,,,,,,1003.12841796875,,
1557947883864,,19.911306004020528,,,,,,,,
1557947883891,,,,1.7174077428168537,0.9888355135917664,1.489238977432251,8.221940040588379,,60.84158342823525,49.91494940829229
1557947883905,,16.83027627950192,,,,,,,,
1557947883932,4.0,,,,,,,,,
1557947883944,,20.99257317564982,0.0,,,,,,,
1557947883951,,,,0.8059119380759219,0.8954587578773499,1.6544438600540161,9.677659034729004,1003.1240234375,63.15343853774448,49.18993720331157
1557947883985,,18.67063761575045,,,,,,,,
1557947884011,,,,,,,,,65.10062301727754,
1557947884012,,,,1.7370865391645025,0.3902668058872223,1.781340479850769,11.360834121704102,,63.559547925415075,50.12270171192663
1557947884024,,22.175958382917425,0.0,,,,,,,
1557947884034,4.0,,,,,,,,,
1557947884050,,,,,,,,1003.1240234375,,
1557947884065,,22.813735295622507,,,,,,,,
1557947884072,,,,1.807574188693741,-0.011971374042332172,1.8459858894348145,11.37280559539795,,64.45956195234766,50.600565327181464
1557947884104,,16.06475202986041,0.0,,,,,,,
1557947884131,,,,2.1630905667980938,-0.41660380363464355,1.6759923696517944,11.52125072479248,,65.35506805442805,50.107041113284886
1557947884143,4.0,,,,,,,,,
1557947884144,,19.098112489310854,,,,,,,,
1557947884148,,,,,,,,1003.120361328125,,
1557947884184,,15.076585620959719,,,,,,,,
1557947884191,,,,,-1.283331274986267,2.638490915298462,9.99130916595459,,62.56926611841163,
1557947884197,,,,2.5331703719210656,,,,,62.994950828243475,50.712637402241874
1557947884225,,17.249952884294483,0.0,,,,,,,
1557947884244,4.0,,,,,,,,,
1557947884251,,,,,,,,1003.138427734375,60.92265094349409,
1557947884252,,,,2.0739847112255823,-0.797293484210968,2.628913640975952,9.105426788330078,,,51.161601512170854
1557947884265,,18.858411703968038,,,,,,,,
1557947884305,,16.925062024890497,0.0,,,,,,,
1557947884314,,,,2.098608273326751,-1.022355318069458,2.14048171043396,8.217150688171387,,65.23667355535503,50.729599675787796
1557947884344,4.0,18.776337914141475,,,,,,,,
1557947884349,,,,,,,,1003.138427734375,,
1557947884371,,,,1.781451632146894,,,,,64.95337779915042,51.54603869581016
1557947884372,,,,,-0.13886794447898865,1.4988160133361816,7.960963726043701,,,
1557947884384,,17.023347819567892,,,,,,,,
1557947884385,,,0.0,,,,,,,
1557947884425,,25.24024272864118,,,,,,,,
1557947884431,,,,,,,,,63.64143506337439,
1557947884432,3.0,,,2.0847445730826495,0.09577099233865738,1.6831752061843872,7.594639778137207,,,51.365605927618574
1557947884445,3.0,,,,,,,,,
1557947884449,,,,,,,,1003.142333984375,,
1557947884464,,22.642782593301483,,,,,,,,
1557947884502,,,,1.1288850247720814,-0.40942099690437317,1.0726351737976074,9.220352172851562,,71.91360694077105,51.79202659077179
1557947884505,,21.17496762633055,0.0,,,,,,,
1557947884544,,20.298598076174823,,,,,,,,
1557947884546,3.0,,,,,,,,,
1557947884551,,,,3.2823596349660398,0.08619388937950134,0.6009629964828491,12.445440292358398,1003.149658203125,79.54067428124915,52.059153555145095
1557947884584,,19.907233385239717,0.0,,,,,,,
1557947884612,4.0,,,3.1950364121823243,0.8044763207435608,1.1157320737838745,12.373612403869629,,77.76770060668645,52.40954593436642
1557947884625,,19.851799508415326,,,,,,,,
1557947884646,4.0,,,,,,,,,
1557947884649,,,,,,,,1003.149658203125,,
1557947884665,,18.98654300426284,0.0,,,,,,,
1557947884671,,,,3.023270634425488,0.45730647444725037,1.4317762851715088,12.3807954788208,,77.17849433793526,52.20513539827171
1557947884704,,20.641607511878686,,,,,,,,
1557947884731,,,,1.165453393489521,,,,,77.05884308405501,53.209852656856484
1557947884732,,,,,0.7326480746269226,1.3767080307006836,9.653716087341309,,,
1557947884745,,24.608612095731836,,,,,,,,
1557947884747,4.0,,,,,,,,,
1557947884749,,,,,,,,1003.156982421875,,
1557947884784,,20.812178606811386,0.0,,,,,,,
1557947884791,,,,1.6394100231715425,0.7541965842247009,1.4006507396697998,8.418270111083984,,76.07891584383327,53.3974713190233
1557947884824,,19.0278520920018,,,,,,,,
1557947884847,4.0,,,,,,,,,
1557947884851,,,,,0.6416656374931335,1.0654523372650146,8.363202095031738,1003.171142578125,76.76381306285629,53.27141748944834
1557947884852,,,,1.6217393439860035,,,,,,
1557947884864,,18.7457515937258,,,,,,,,
1557947884865,,,0.0,,,,,,,
1557947884905,,22.11611752249473,,,,,,,,
1557947884912,,,,,,,,,68.70147142695157,53.30894438391304
1557947884913,,,,2.803998262091954,1.1779831647872925,1.4269877672195435,7.127756118774414,,,
1557947884945,,20.84566146182985,0.0,,,,,,,
1557947884949,,,,,,,,1003.171142578125,,
1557947884963,4.0,,,,,,,,,
1557947884971,,,,,,,,,77.56421561093339,54.022162703679605
1557947884972,,,,2.7468706879565663,0.1532335877418518,1.6544438600540161,8.382355690002441,,81.51833506485889,
1557947884985,,21.94784840206949,,,,,,,,
1557947885024,,18.250557418264975,,,,,,,,
1557947885033,,,,2.4643016285510773,0.04788549616932869,2.3200523853302,7.134938716888428,,73.2139998266606,54.177375237326224
1557947885050,,,,,,,,1003.1708984375,,
1557947885064,,21.735793474324456,0.0,,,,,,,
1557947885067,4.0,,,,,,,,,
1557947885091,,,,1.5736488844282903,-0.38547825813293457,2.597788095474243,8.164477348327637,,79.90766034535397,54.24417964501696
1557947885104,,21.51861621593755,,,,,,,,
1557947885144,,25.04481650409265,0.0,,,,,,,
1557947885151,,,,3.8277106858863608,-1.7071179151535034,2.5235655307769775,12.876409530639648,1003.185791015625,87.0770913510629,53.39163827733637
1557947885168,4.0,,,,,,,,,
1557947885184,,29.628394629058423,,,,,,,,
1557947885220,,,,5.505343009386515,,,,,88.68336742874232,54.080604171185556
1557947885221,,,,,-2.329629421234131,3.076643228530884,14.52367115020752,,,
1557947885224,,19.94813755952992,0.0,,,,,,,
1557947885249,,,,,,,,1003.185791015625,,
1557947885265,,33.21018413891952,,,,,,,,
1557947885271,,,,4.069933150583647,-1.3431881666183472,1.7262721061706543,13.527652740478516,,92.5667534436231,54.67909392919838
1557947885284,4.0,,,,,,,,,
1557947885305,,22.35462598081121,,,,,,,,
1557947885331,,,,,,,,,75.58423256300591,
1557947885332,,,,2.695677270946335,-0.936161458492279,3.653663396835327,7.618582248687744,,,53.86295944642572
1557947885345,,18.276959496060176,0.0,,,,,,,
1557947885350,,,,,,,,1003.185791015625,,
1557947885384,,19.986116847376632,,,,,,,,
1557947885392,,,,,,,,,83.67791110682265,54.48429167602234
1557947885393,4.0,,,2.155372109204855,-0.42378664016723633,2.0399222373962402,7.429434776306152,,,
1557947885425,,38.02060559641942,,,,,,,,
1557947885429,,,105.634765625,,,,,,,
1557947885452,,,,3.812994002558856,0.1771763414144516,1.393467903137207,5.868367671966553,1003.189453125,87.66958977099398,54.74377527907101
1557947885464,,22.29676329289129,105.634765625,,,,,,,
1557947885494,4.0,,,,,,,,,
1557947885504,,33.07096842839891,105.634765625,,,,,,,
1557947885514,,,,,,,,,87.12326342985222,
1557947885515,3.0,,,4.678353910891283,-1.223474383354187,1.8603515625,4.934600353240967,,89.06923213571304,54.77539956035987
1557947885544,,32.73687066592722,,,,,,,,
1557947885549,,,,,,,,1003.194091796875,,
1557947885571,,,,2.586668527772896,-1.0941835641860962,2.6839821338653564,6.9601569175720215,,86.4763284022361,54.72266249946989
1557947885585,,28.89791599734693,,,,,,,,
1557947885591,,,63.798828125,,,,,,,
1557947885600,3.0,,,,,,,,,
1557947885624,,19.449524336690946,63.798828125,,,,,,,
1557947885630,,,,,,,,,106.6839553259066,
1557947885631,,,,1.5138911131551815,-0.7134938836097717,0.7326480746269226,9.028810501098633,,106.93999179713367,54.209259583863904
1557947885648,,,,,,,,1003.18896484375,,
1557947885664,,19.642291550231846,63.798828125,,,,,,,
1557947885691,,,,4.467649310946483,-3.0479118824005127,1.0008069276809692,13.630606651306152,,105.73543329548858,54.98439258490737
1557947885701,3.0,,,,,,,,,
1557947885704,,16.587628695917186,63.798828125,,,,,,,
1557947885744,,22.782842741659287,,,,,,,,
1557947885750,,,,,,,,,105.38300919469424,
1557947885751,,,,5.264881840002164,-2.5953938961029053,1.1348862648010254,14.755915641784668,1003.18505859375,,55.66425305666397
1557947885784,,18.559248334251645,0.0,,,,,,,
1557947885813,,,,5.229135743717188,-2.293715238571167,2.133298873901367,12.907535552978516,,100.19423059545147,55.68678880095328
1557947885814,3.0,,,,,,,,,
1557947885824,,23.443343407187204,,,,,,,,
1557947885850,,,,,,,,1003.180908203125,,
1557947885864,,27.684765950809375,0.0,,,,,,,
1557947885872,,,,,,,,,94.1071113656227,55.8081925529507
1557947885873,4.0,,,0.7477672243420622,-1.611346960067749,1.5562785863876343,9.249083518981934,,,
1557947885904,,25.886286276496154,,,,,,,,
1557947885929,4.0,,,,,,,,,
1557947885931,,,,4.259898159618639,-1.35037100315094,1.9776710271835327,,,81.37986663981519,56.27456174188867
1557947885932,,,,,,,5.396695613861084,,,
1557947885944,,21.06800086285792,,,,,,,,
1557947885949,,,,,,,,1003.19384765625,,
1557947885985,,18.372476342762607,0.0,,,,,,,
1557947885992,,,,,,,,,97.84737076644592,56.30174183898221
1557947885993,,,,6.586773838504657,-1.6975408792495728,0.1245022863149643,3.0215747356414795,,,
1557947886024,,18.785823639700073,,,,,,,,
1557947886031,4.0,,,,,,,,,
1557947886052,,,,,,,,,98.9833678292024,57.20948868369503
1557947886053,3.0,,,6.5090626847259205,-1.7621862888336182,-1.1779831647872925,3.9218220710754395,1003.199951171875,113.1374868839498,
1557947886065,,24.323829241662274,0.0,,,,,,,
1557947886104,,25.126848499000086,,,,,,,,
1557947886116,,,,6.35452332876667,-2.3320236206054688,-0.05985686928033829,3.907456398010254,,119.87047563188412,56.96281916853269
1557947886136,3.0,,,,,,,,,
1557947886144,,25.51770767658404,0.0,,,,,,,
1557947886154,,,,,,,,1003.20703125,,
1557947886174,,,,,-3.6177492141723633,,,,97.02724946223498,56.85875877682724
1557947886175,,,,4.504873603631115,,0.8978530764579773,3.967313289642334,,,
1557947886184,,22.46741919928072,,,,,,,,
1557947886225,,25.602137560920607,,,,,,,,
1557947886236,,,,4.420871148889989,,,,,83.7601534146188,57.614682731638844
1557947886237,4.0,,,,-9.778218269348145,-4.508419513702393,19.194900512695312,,,
1557947886256,,,,,,,,1003.218505859375,,
1557947886264,,29.736838018727628,0.0,,,,,,,
1557947886291,,,,,,,,,90.84316886694876,58.22405706045196
1557947886296,,,,12.428260323274772,-7.130150318145752,-1.429382085800171,12.78303337097168,,81.09541658164085,
1557947886304,,26.65282046551639,,,,,,,,
1557947886344,4.0,24.36519623657226,0.0,,,,,,,
1557947886351,,,,,,,,1003.220703125,100.7471958804665,
1557947886352,,,,9.08811708057904,-6.193988800048828,-5.023188591003418,16.78386688232422,,,57.42354117644062
1557947886384,,22.95726632337796,,,,,,,,
1557947886413,8.0,,,3.2522227682409977,-7.0224080085754395,0.44054657220840454,8.176448822021484,,62.33863795089695,57.10695032699635
1557947886424,,19.193983291967065,0.0,,,,,,,
1557947886444,8.0,,,,,,,,,
1557947886449,,,,,,,,1003.217041015625,,
1557947886464,,19.133963149377312,,,,,,,,
1557947886471,,,,5.5937036267281695,-8.358413696289062,,,,58.48100174918716,56.74100012738526
1557947886472,,,,,,1.489238977432251,10.920287132263184,,,
1557947886504,,17.15430080046937,,,,,,,,
1557947886531,,,,,,,,,70.36450637663381,57.75996250246481
1557947886532,,,,5.8612793129423695,-3.6440863609313965,-0.05027977004647255,3.004814863204956,,,
1557947886544,,20.36646545276943,0.0,,,,,,,
1557947886546,8.0,,,,,,,,,
1557947886550,,,,,,,,1003.225830078125,,
1557947886585,,23.980414306870163,,,,,,,,
1557947886592,,,,8.001601058965383,-1.532335877418518,-1.1061549186706543,1.3647366762161255,,87.82604891431151,59.679614729443095
1557947886625,,26.965029933843397,0.0,,,,,,,
1557947886647,8.0,,,,,,,,,
1557947886652,,,,8.000886391171518,-1.903448462486267,,,1003.232666015625,96.04267769337764,59.20300518172971
1557947886653,,,,,,-1.4245935678482056,9.143735885620117,,,
1557947886664,,20.131884535814958,,,,,,,,
1557947886704,,28.003203302431213,,,,,,,,
1557947886705,,,0.0,,,,,,,
1557947886719,,,,1.9738457747469969,-4.905869007110596,2.1859729290008545,8.379961967468262,,66.35764420193755,59.69975747796261
1557947886744,,28.19026983781449,,,,,,,,
1557947886753,8.0,,,,,,,1003.235107421875,,
1557947886772,7.0,,,2.7541871705400545,-6.699181079864502,1.7550034523010254,8.92106819152832,,73.50077214915274,62.24328084810516
1557947886784,,21.756495181643206,,,,,,,,
1557947886824,,16.577732491286657,0.0,,,,,,,
1557947886833,,,,2.955189785357358,,,,,69.20184425535757,64.50080639080488
1557947886834,,,,,-2.8635525703430176,-1.6472610235214233,11.81335163116455,,,
1557947886848,,,,,,,,1003.242431640625,,
1557947886861,7.0,,,,,,,,,
1557947886864,,18.15119742986294,,,,,,,,
1557947886891,,,,2.376983316397464,-6.100612163543701,-0.22027328610420227,10.530020713806152,,75.0199906356712,66.96690706810621
1557947886904,,30.769665911845397,0.0,,,,,,,
1557947886944,,21.97379026436188,,,,,,,,
1557947886953,,,,7.369244932421736,-7.939415454864502,,,1003.2490234375,80.30683709101703,66.01390543988279
1557947886970,11.0,,,,,,,,,
1557947886984,,23.42807475521392,0.0,,,,,,,
1557947887017,,,,5.0029135798162025,-9.581888198852539,1.1755889654159546,11.1405611038208,,76.80979389634882,64.96853081075841
1557947887024,,22.128622385028645,,,,,,,,
1557947887050,,,,,,,,1003.252685546875,,
1557947887065,,20.035308688951332,,,,,,,,
1557947887071,11.0,,,,,,,,,
1557947887073,,,,2.8024083815205105,-4.7598185539245605,1.149251937866211,5.664854049682617,,73.67242163318434,60.57052744997111
1557947887104,,18.830463075870828,0.0,,,,,,,
1557947887135,10.0,,,4.053233450068825,-2.7031362056732178,-0.1005595400929451,5.4062724113464355,,90.58763782972022,59.03527141879241
1557947887145,,15.687337195789809,,,,,,,,
1557947887153,,,,,,,,1003.25634765625,,
1557947887174,10.0,,,,,,,,,
1557947887185,,22.290302401854596,0.0,,,,,,,
1557947887196,,,,4.589624122072436,-0.31125572323799133,1.58022141456604,1.3383996486663818,,94.5541335864217,56.69114258057685
1557947887224,,25.12065888411499,,,,,,,,
1557947887251,,,,8.008368883110265,,,,1003.24853515625,50.8473501063491,56.4057738481827
1557947887252,,,,,-0.8906702399253845,0.03351984918117523,1.0008069276809692,,,
1557947887264,,28.375734084045014,0.0,,,,,,,
1557947887280,10.0,,,,,,,,,
1557947887304,,27.1250128907894,,,,,,,,
1557947887312,5.0,,,8.146940216283369,-1.2067145109176636,2.2170984745025635,0.6823683381080627,,90.3337938492167,55.29402749445153
1557947887344,,24.969500334732203,,,,,,,,
1557947887349,,,,,,,,1003.261474609375,,
1557947887371,,,,7.82615091555716,-6.670449733734131,-1.9441511631011963,4.678412914276123,,99.1659251253385,53.547635831304035
1557947887381,5.0,,,,,,,,,
1557947887384,,22.587721688828957,0.0,,,,,,,
1557947887424,,23.37926504370988,,,,,,,,
1557947887431,,,,6.0362695549801995,-12.390372276306152,-3.99125599861145,,,103.52159823075817,51.52627179810896
1557947887432,,,,,,,4.194769382476807,,,
1557947887449,,,,,,,,1003.256591796875,,
1557947887464,,27.11028735088687,0.0,,,,,,,
1557947887485,5.0,,,,,,,,,
1557947887492,,,,11.175334773500285,-12.795004844665527,-7.688016414642334,0.7565908432006836,,93.84873896969947,50.10661057697907
1557947887493,15.0,,,,,,,,,
1557947887504,,29.27457367806899,,,,,,,,
1557947887544,,30.986480416291503,0.0,,,,,,,
1557947887553,,,,11.546150153796868,-18.028888702392578,-6.179623126983643,6.2418742179870605,1003.25537109375,110.41759627342401,49.08344650138586
1557947887584,,29.817870289231976,,,,,,,,
1557947887595,15.0,,,,,,,,,
1557947887613,,,,7.446939584801766,,,,,124.69157831791594,48.54148299329507
1557947887614,,,,,-14.147769927978516,-7.254652500152588,3.7709827423095703,,,
1557947887624,,36.41131883188721,,,,,,,,
1557947887652,,,,,,,,1003.2607421875,,
1557947887665,,37.228503648964555,,,,,,,,
1557947887667,,,0.0,,,,,,,
1557947887673,4.0,,,6.515728041751167,-13.843696594238281,-4.276175022125244,3.1436827182769775,,103.62856582334973,50.027693950263256
1557947887697,4.0,,,,,,,,,
1557947887704,,31.26065110858072,,,,,,,,
1557947887731,,,,6.985289238612122,-12.251503944396973,,,,77.04081138464619,50.48653086303307
1557947887732,,,,,,-3.2083282470703125,2.6121537685394287,,,
1557947887744,,28.344841411692503,,,,,,,,
1557947887748,,,,,,,,1003.275146484375,,
1557947887749,,,53.8330078125,,,,,,,
1557947887784,,19.920467994043744,53.8330078125,,,,,,,
1557947887791,,,,,,,,,61.44658792453663,52.39370744955985
1557947887792,,,,7.42466307623816,-11.743917465209961,-4.932206153869629,3.0814316272735596,,,
1557947887812,4.0,,,,,,,,,
1557947887824,,15.928223127927481,53.8330078125,,,,,,,
1557947887857,,,,,-10.312141418457031,-4.036747455596924,1.1037607192993164,1003.288330078125,66.80721408329691,
1557947887858,2.0,,,5.183898962790546,,,,,,53.197538187961705
1557947887864,,14.075045938741122,,,,,,,,
1557947887904,,13.944993295707812,,,,,,,,
1557947887921,,,,,,,,,58.968124010603276,
1557947887922,2.0,,,5.022314631381809,-12.45501708984375,-6.390319347381592,0.6105400919914246,,61.2104887754968,53.930253922883104
1557947887944,,15.699482145244188,0.0,,,,,,,
1557947887948,,,,,,,,1003.29248046875,,
1557947887971,,,,5.898674845183384,,,,,55.4664499476778,53.73431066860161
1557947887972,,,,,-9.68244743347168,-1.2330515384674072,1.2761484384536743,,,
1557947887984,,13.526090529746996,,,,,,,,
1557947888022,2.0,,,,,,,,,
1557947888024,,14.789638305930575,0.0,,,,,,,
1557947888031,3.0,,,5.736160208322888,,,,,44.02427457835688,52.5953974710375
1557947888032,,,,,-11.921093940734863,-3.8930907249450684,0.2609759569168091,,46.91140578580507,
1557947888048,,,,,,,,1003.2978515625,,
1557947888063,,16.15143344961175,,,,,,,,
1557947888092,,,,6.373174967108384,-14.281848907470703,-5.717528343200684,0.17478206753730774,,47.98556231581631,49.80682877414432
1557947888104,,25.01525779418234,0.0,,,,,,,
1557947888121,3.0,,,,,,,,,
1557947888144,,30.461612410091433,,,,,,,,
1557947888151,,,,5.638807178191348,-12.33290958404541,-7.891529560089111,-0.10295381397008896,1003.302001953125,48.83844803747576,46.8891840858275
1557947888183,,24.034016610683963,,,,,,,,
1557947888184,,,0.0,,,,,,,
1557947888213,2.0,,,6.889144219346201,-9.895537376403809,-8.56432056427002,0.30886146426200867,,56.283316666749215,46.41576913288617
1557947888224,,30.621012577992257,,,,,,,,
1557947888228,2.0,,,,,,,,,
1557947888248,,,,,,,,1003.30859375,,
1557947888264,,25.49682905978431,,,,,,,,
1557947888270,,,,,,,,,83.12594302942642,
1557947888271,,,,8.04315229802098,-7.130150318145752,-7.460560321807861,0.016759924590587616,,91.97422770293531,45.76092565493925
1557947888303,,28.63958464261391,,,,,,,,
1557947888304,,,0.0,,,,,,,
1557947888333,2.0,,,8.44441674322749,-4.369551658630371,-6.5555243492126465,0.24661029875278473,,112.54502944515372,45.34587083955127
1557947888344,,25.976112464440277,,,,,,,,
1557947888348,,,,,,,,1003.3095703125,,
1557947888384,,23.028725715373763,0.0,,,,,,,
1557947888390,,,,,,,,,107.51819463113193,
1557947888391,3.0,,,7.831201980333996,-3.5842294692993164,-5.035160064697266,-0.7278595566749573,,,45.5768222748281
1557947888424,,18.644108410642616,,,,,,,,
1557947888437,3.0,,,,,,,,,
1557947888457,,,,,,,,1003.31982421875,114.99727226286342,46.18788066794486
1557947888458,,,,7.2261776713413965,-3.8883023262023926,-6.589044094085693,-0.38068968057632446,,,
1557947888464,,17.567119877265053,0.0,,,,,,,
1557947888504,,16.342578637144097,,,,,,,,
1557947888517,,,,6.578854191973557,-6.550735950469971,-7.340846538543701,0.651242733001709,,125.65381536818734,46.07613352945504
1557947888537,3.0,,,,,,,,,
1557947888544,,21.76588295870883,,,,,,,,
1557947888550,,,,,,,,1003.31591796875,,
1557947888571,,,,7.7987395906569965,-11.169292449951172,-11.66490650177002,2.14048171043396,,129.57218561199693,45.43347073001105
1557947888584,,17.234994178025413,0.0,,,,,,,
1557947888624,,16.699290460787985,,,,,,,,
1557947888637,,,,,,,,,25.009085985649335,
1557947888638,3.0,,,7.311563806841439,-12.040807723999023,-5.863578796386719,5.808510780334473,,,45.11732651046462
1557947888657,,,,,,,,1003.309814453125,,
1557947888664,,17.978294682365565,0.0,,,,,,,
1557947888693,,,,7.6018791485629045,-12.751907348632812,-4.118152618408203,2.0231621265411377,,8.31611475319562,45.94456405278401
1557947888704,,15.325492853329724,,,,,,,,
1557947888744,,15.926462330131347,0.0,,,,,,,
1557947888748,3.0,,,,,,,,,
1557947888751,,,,6.981131873843255,-11.176474571228027,-4.783761024475098,,1003.3115234375,355.6225962208491,45.874737111914676
1557947888752,2.0,,,,,,3.162837028503418,,,
1557947888785,,17.993522730422907,,,,,,,,
1557947888813,,,,4.851860098687546,-7.570696830749512,-4.994457244873047,2.8922839164733887,,347.08811733168045,46.31957022200723
1557947888824,,13.778969738357043,,,,,,,,
1557947888865,,13.363031368696703,0.0,,,,,,,
1557947888868,2.0,,,,,,,1003.311767578125,,
1557947888872,,,,3.8111388481349224,-6.466936111450195,-4.865166187286377,2.102173328399658,,339.97485694793204,45.726810737209014
1557947888904,,10.606121975842742,,,,,,,,
1557947888941,,,,3.305979518967712,-6.526793003082275,-4.733481407165527,0.6871568560600281,,330.85636486821556,46.05741507895873
1557947888947,,13.32896262605869,0.0,,,,,,,
1557947888949,,,,,,,,1003.314453125,,
1557947888984,,13.000317445956547,,,,,,,,
1557947888987,2.0,,,,,,,,,
1557947888990,,,,,,,,,330.42442370510395,
1557947888991,,,,2.2041360685920477,-8.102226257324219,-5.293741703033447,0.541106104850769,,332.5053996376465,46.36528825806653
1557947889024,,16.336916946768387,0.0,,,,,,,
1557947889052,,,,,,,,,327.0348945181609,46.51861582864083
1557947889053,,,,1.9402730232507586,-8.945011138916016,-4.769395351409912,0.05746259540319443,1003.32080078125,330.27696333601796,
1557947889064,,17.19088779361551,,,,,,,,
1557947889087,2.0,,,,,,,,,
1557947889104,,18.314721935882506,,,,,,,,
1557947889112,,,,3.116096324719703,-11.166897773742676,-3.478881359100342,-0.9816526770591736,,325.9829019520064,46.63431962128893
1557947889144,,15.910519812693387,0.0,,,,,,,
1557947889148,,,,,,,,1003.327392578125,,
1557947889170,,,,7.254582502470852,-12.466988563537598,,,,331.9167158783669,45.03154819122001
1557947889171,,,,,,-2.6815876960754395,-0.08619388937950134,,,
1557947889183,,17.757193973789352,,,,,,,,
1557947889196,2.0,,,,,,,,,
1557947889224,,17.09516089903871,0.0,,,,,,,
1557947889230,,,,,,,,,328.413708221006,
1557947889231,,,,7.106610844424492,-12.941055297851562,-3.3591675758361816,-1.5467015504837036,,328.32836842242125,45.198163392892155
1557947889248,,,,,,,,1003.320068359375,,
1557947889264,,20.76452193990353,,,,,,,,
1557947889290,,,,,,,,,327.94797128188117,
1557947889291,,,,6.458519848827231,-10.704802513122559,-3.5507094860076904,1.1660118103027344,,324.11697623302894,45.75490590956778
1557947889297,2.0,,,,,,,,,
1557947889304,,31.127561898403595,0.0,,,,,,,
1557947889343,,30.065897303778662,,,,,,,,
1557947889351,,,,,-9.397528648376465,-3.44057297706604,0.8715160489082336,,323.6147455931688,45.0229917753002
1557947889352,,,,2.7279343091600965,,,,1003.31103515625,,
1557947889384,,43.49486707412022,,,,,,,,
1557947889397,2.0,,,,,,,,,
1557947889414,,,,1.6156118337068917,-11.753495216369629,-6.596227169036865,-0.8020820617675781,,331.9711080898223,43.822432085722674
1557947889425,,46.09396382836856,,,,,,,,
1557947889427,,,74.3310546875,,,,,,,
1557947889450,,,,,,,,1003.31103515625,,
1557947889464,,36.57032154231285,,,,,,,,
1557947889465,,,74.3310546875,,,,,,,
1557947889472,,,,4.9783991563955965,-11.190840721130371,-7.292961120605469,2.138087511062622,,324.79948971603164,42.53356742454454
1557947889501,2.0,,,,,,,,,
1557947889504,,35.32314030549118,,,,,,,,
1557947889505,,,74.3310546875,,,,,,,
1557947889508,,,63.6669921875,,,,,,,
1557947889532,,,,5.382338194304238,-10.300169944763184,-7.137333393096924,1.8172545433044434,,322.2748434780253,43.232570488330246
1557947889544,,33.57923616739759,63.6669921875,,,,,,,
1557947889550,,,,,,,,1003.306884765625,,
1557947889584,,32.82072988096006,63.6669921875,,,,,,,
1557947889587,,,43.9892578125,,,,,,,
1557947889591,,,,,-9.06472396850586,,,,310.5576027304496,41.48799305004102
1557947889592,,,,6.306245935020989,,-7.13254451751709,2.018373727798462,,,
1557947889601,2.0,,,,,,,,,
1557947889624,,35.44765913845835,43.9892578125,,,,,,,
1557947889661,3.0,,,6.945979254764384,-6.050332546234131,-6.883540153503418,1.9656996726989746,1003.304443359375,282.0011999427462,41.216549243217294
1557947889664,,21.281746276019675,43.9892578125,,,,,,,
1557947889702,3.0,,,,,,,,,
1557947889704,,17.122659201994455,43.9892578125,,,,,,,
1557947889721,,,,7.648618795332812,-4.163643836975098,-5.243461608886719,0.5243461728096008,,257.43115168675604,41.52506989225038
1557947889745,,15.11109987685691,,,,,,,,
1557947889751,,,,,,,,1003.304443359375,,
1557947889772,,,,7.466084407628669,-3.1819913387298584,-4.501236438751221,-0.12210801243782043,,220.15533281970897,41.49350297672125
1557947889784,,17.967025263840195,0.0,,,,,,,
1557947889805,3.0,,,,,,,,,
1557947889824,,17.775805152384706,,,,,,,,
1557947889837,,,,7.179726020452296,,,,,232.04711563642968,41.37690536262586
1557947889838,,,,,-2.76059889793396,-3.7111258506774902,0.4620950520038605,,,
1557947889850,,,,,,,,1003.304443359375,,
1557947889864,,19.19445751612336,,,,,,,,
1557947889865,,,0.0,,,,,,,
1557947889893,,,,4.832563909037988,-4.644893169403076,-3.251425266265869,-0.12210801243782043,,242.8309598075043,41.421600972893344
1557947889904,,17.302043769536784,,,,,,,,
1557947889914,3.0,,,,,,,,,
1557947889944,,17.490620315779168,,,,,,,,
1557947889954,,,,4.43081419271903,-7.264229774475098,-6.742278099060059,-0.7709565162658691,1003.308349609375,261.84519558882266,41.0907151160326
1557947889984,,18.626343072886645,0.0,,,,,,,
1557947890017,3.0,,,,,,,,,
1557947890020,,,,,-13.206819534301758,-9.75427532196045,2.8707354068756104,,269.81401144442236,41.57450067470096
1557947890021,,,,7.281718357723741,,,,,,
1557947890024,,17.38536987114553,,,,,,,,
1557947890049,,,,,,,,1003.308349609375,,
1557947890067,,19.545569827662636,0.0,,,,,,,
1557947890071,,,,10.978647488811806,-17.600313186645508,-7.903501033782959,3.0143918991088867,,298.7807959031223,41.41630031513213
1557947890104,,22.0601924723632,,,,,,,,
1557947890117,3.0,,,,,,,,,
1557947890133,,,,11.975121458070765,-14.442265510559082,-3.5195839405059814,1.2378400564193726,,316.75016983577956,41.927122087249984
1557947890144,,30.278583514706355,0.0,,,,,,,
1557947890151,,,,,,,,1003.3203125,,
1557947890184,,23.900896029340416,,,,,,,,
1557947890191,,,,,,,,,327.7604381929347,
1557947890192,2.0,,,10.052785413400164,-9.826104164123535,-2.8084843158721924,-0.73504239320755,,331.26096819917416,41.43259643539783
1557947890218,2.0,,,,,,,,,
1557947890224,,32.573765023916586,,,,,,,,
1557947890252,,,,,,,,1003.33056640625,,
1557947890253,,,,5.288463654417669,-5.990475654602051,-2.4876515865325928,0.39984390139579773,,323.6025878564461,42.00145548135068
1557947890264,,19.813701349164823,0.0,,,,,,,
1557947890304,,17.11118282663274,,,,,,,,
1557947890315,,,,5.708143393519172,-5.684008598327637,-1.9369683265686035,-0.7996878027915955,,334.01787501990685,42.072195158737024
1557947890333,2.0,,,,,,,,,
1557947890345,,15.72801818357057,0.0,,,,,,,
1557947890355,,,,,,,,1003.33056640625,,
1557947890377,,,,5.59520050507724,-6.287365436553955,-1.7286664247512817,-1.13009774684906,,337.7557540998043,42.26291828219992
1557947890384,,15.688666166949549,,,,,,,,
1557947890424,,18.624417222399117,0.0,,,,,,,
1557947890439,,,,5.667024077569457,,,,,339.21433928951325,42.26854118613039
1557947890440,2.0,,,,-8.947404861450195,-3.2346651554107666,-1.5419130325317383,,,
1557947890461,,,,,,,,1003.33935546875,,
1557947890464,,20.194766040858735,,,,,,,,
1557947890491,,,,,,,,,337.27557472567946,43.033051880613186
1557947890492,,,,4.631204927665289,-17.32257843017578,-6.423839092254639,1.3120626211166382,,331.77965447229224,
1557947890504,,19.058295211213732,,,,,,,,
1557947890540,2.0,,,,,,,,,
1557947890550,,23.008810199104136,0.0,,,,,,,
1557947890554,,,,,,,,,332.37969342106703,
1557947890555,,,,10.615712852889343,-18.433521270751953,-6.426233768463135,3.8930907249450684,1003.343994140625,,41.820731860232925
1557947890584,,24.170186019905103,,,,,,,,
1557947890622,,,,11.980613943935962,-15.261107444763184,-8.47333812713623,3.478881359100342,,329.4763149011307,42.72025265956488
1557947890624,,22.773609958955817,0.0,,,,,,,
1557947890641,2.0,,,,,,,,,
1557947890656,,,,,,,,1003.343994140625,,
1557947890664,,34.394730491621466,,,,,,,,
1557947890671,,,,4.8196710441054655,-9.519637107849121,-7.307326793670654,2.669616460800171,,321.6424704137196,43.289324403964606
1557947890704,,30.626883375634577,0.0,,,,,,,
1557947890731,,,,6.164048575614025,-6.023995399475098,-7.355212211608887,1.8866885900497437,,294.2937919203416,43.5481782982867
1557947890741,2.0,,,,,,,,,
1557947890747,,29.945874630339443,,,,,,,,
1557947890748,,,,,,,,1003.3466796875,,
1557947890784,,26.87800352159126,,,,,,,,
1557947890791,,,,,,,,,256.95051810505146,44.415443333168874
1557947890792,,,,6.85820369234847,,,,,256.6008807214385,
1557947890793,,,,,-4.599401950836182,-4.85080099105835,0.9744698405265808,,,
1557947890824,,22.87176900495031,0.0,,,,,,,
1557947890845,2.0,,,,,,,,,
1557947890851,,,,,,,,,247.02351433516571,44.68179360985964
1557947890852,,,,6.27758986080241,-3.529160976409912,-4.747847080230713,0.4740664064884186,1003.350341796875,233.95802498128086,
1557947890864,,19.610280746675333,,,,,,,,
1557947890904,,21.993654987536853,0.0,,,,,,,
1557947890920,4.0,,,7.122754194785605,-1.75021493434906,-5.286558628082275,0.5842030644416809,,231.953842573124,45.63685326910865
1557947890945,,21.15880208851387,,,,,,,,
1557947890952,4.0,,,,,,,1003.350341796875,,
1557947890971,,,,,,,,,233.47967951294817,46.268908934020736
1557947890972,,,,8.584233011544152,-2.4110348224639893,-7.93223237991333,-0.15802213549613953,,208.67370286264747,
1557947890984,,24.047096302655795,0.0,,,,,,,
1557947891025,,28.832818336820438,,,,,,,,
1557947891040,,,,7.990908224839808,,,,,208.6532532762725,46.87082922358022
1557947891041,,,,,-7.599428176879883,-10.130176544189453,0.13886794447898865,,,
1557947891058,,,,,,,,1003.352783203125,,
1557947891059,4.0,,,,,,,,,
1557947891064,,27.195591019594726,0.0,,,,,,,
1557947891091,5.0,,,14.140300194819394,-15.95305347442627,-15.93389892578125,4.431802749633789,,247.5726820350023,46.81230597266618
1557947891104,,27.94080422284683,,,,,,,,
1557947891144,,30.28501398571414,,,,,,,,
1557947891151,,,,13.98688274040879,-20.064022064208984,-7.853221416473389,,1003.3642578125,274.31110361660717,46.2463396231863
1557947891152,,,,,,,-0.11731946468353271,,,
1557947891165,5.0,,,,,,,,,
1557947891184,,33.78443120862927,0.0,,,,,,,
1557947891212,,,,,,,,,324.74969080679307,46.8653762859255
1557947891213,,,,14.109033793804825,-13.637789726257324,0.6296942830085754,-1.3479766845703125,,,
1557947891224,,29.563369785020587,,,,,,,,
1557947891249,,,,,,,,1003.3642578125,,
1557947891264,,26.49194624265948,0.0,,,,,,,
1557947891271,2.0,,,10.257553294873391,-9.565128326416016,-1.8411973714828491,0.16999350488185883,,325.44462157370685,47.286890060762644
1557947891279,2.0,,,,,,,,,
1557947891304,,24.054420021413208,,,,,,,,
1557947891333,,,,7.888524869421311,-7.664073467254639,-2.5858168601989746,-0.3974496126174927,,333.4804125567604,46.144992893262675
1557947891345,,19.352249881440038,0.0,,,,,,,
1557947891352,,,,,,,,1003.37109375,,
1557947891380,2.0,,,,,,,,,
1557947891384,,17.19835607388775,,,,,,,,
1557947891391,,,,7.264385027339854,-7.565908432006836,-1.9297854900360107,-1.0582695007324219,,336.29127104174705,46.81345882070468
1557947891424,,21.117066636616837,,,,,,,,
1557947891453,3.0,,,7.658896724440442,-11.686455726623535,-5.533169269561768,-1.1540404558181763,1003.376220703125,334.9516831153054,46.64701665051256
1557947891464,,22.433446336659635,0.0,,,,,,,
1557947891490,3.0,,,,,,,,,
1557947891504,,21.191634613955003,,,,,,,,
1557947891511,,,,10.686433794701353,,,,,333.107041973329,47.38959467759422
1557947891512,,,,,-15.476592063903809,-4.908263206481934,1.9944308996200562,,,
1557947891546,,18.988718812793344,0.0,,,,,,,
1557947891551,,,,,,,,1003.376220703125,,
1557947891571,,,,12.60139903218525,-17.789461135864258,-8.640937805175781,4.575459003448486,,330.85664149087694,47.65680912876408
1557947891584,,19.590332758050554,,,,,,,,
1557947891590,3.0,,,,,,,,,
1557947891624,,29.29140487138102,0.0,,,,,,,
1557947891633,1.0,,,7.993266132614181,-12.945843696594238,-10.008069038391113,3.66084623336792,,326.46402730733126,47.71648736069212
1557947891651,,,,,,,,1003.3818359375,,
1557947891664,,30.360045775543597,,,,,,,,
1557947891691,,,,4.3371529739910955,-9.37119197845459,-8.006455421447754,1.6975408792495728,,313.75715362072333,48.91078323283093
1557947891696,1.0,,,,,,,,,
1557947891704,,32.771445012222905,,,,,,,,
1557947891745,,35.89847375702314,0.0,,,,,,,
1557947891759,,,,,-4.929811954498291,-7.767027378082275,,1003.390625,284.8161531261402,48.50564822029741
1557947891760,,,,7.057976278246273,,,2.0016138553619385,,,
1557947891784,,29.208834501479394,,,,,,,,
1557947891802,1.0,,,,,,,,,
1557947891821,,,,,,,,,252.0018616362696,49.60566914501884
1557947891822,4.0,,,7.614618957965001,-4.053507328033447,-5.518803596496582,0.8427847623825073,,,
1557947891824,,29.82768730949051,,,,,,,,
1557947891827,,,130.60546875,,,,,,,
1557947891849,,,,,,,,1003.390625,,
1557947891864,,14.457312549769547,130.60546875,,,,,,,
1557947891871,,,,6.680207170940111,-2.6456737518310547,-4.716721534729004,0.09337671846151352,,238.60942478719454,49.7835492072179
1557947891904,4.0,,,,,,,,,
1557947891905,,13.384203528442367,130.60546875,,,,,,,
1557947891932,,,,8.381083542140123,-1.8052831888198853,-5.573871612548828,0.38547825813293457,,225.39744836618036,50.35444190122014
1557947891947,,15.393506729391406,,,,,,,,
1557947891948,,,,,,,,1003.3896484375,,
1557947891984,,22.63774239873928,,,,,,,,
1557947891993,5.0,,,6.869981078187075,-2.9880549907684326,-5.830059051513672,1.3575538396835327,,244.7409948881417,50.03676284089234
1557947892018,5.0,,,,,,,,,
1557947892025,,19.265186004769053,0.0,,,,,,,
1557947892066,,19.552125423464258,,5.7993803548310225,-8.375173568725586,-10.836487770080566,,1003.393310546875,250.7605703772682,50.06384349340993
1557947892067,,,,,,,1.118126392364502,,,
1557947892104,,18.43374751835926,0.0,,,,,,,
1557947892111,,,,11.250999236764866,-15.943475723266602,-12.991334915161133,2.5546913146972656,,256.7484947697808,49.57975340245988
1557947892130,5.0,,,,,,,,,
1557947892145,,25.33481536101518,,,,,,,,
1557947892150,,,,,,,,1003.39453125,,
1557947892171,,,,,,,,,280.5120137980083,49.95924979743871
1557947892172,4.0,,,13.097719159929442,-18.17733383178711,-9.392740249633789,1.642472505569458,,,
1557947892184,,22.575166792629734,0.0,,,,,,,
1557947892224,,36.39391105037732,,,,,,,,
1557947892231,4.0,,,14.919710044191019,-14.746338844299316,-3.747040033340454,-0.10295381397008896,,306.5978961817831,49.3847375796465
1557947892249,,,,,,,,1003.3984375,,
1557947892264,,37.15252119721204,,,,,,,,
1557947892291,,,,10.70959900576384,-10.501289367675781,-2.7175018787384033,-0.1604164093732834,,316.72792732474744,50.09712456132334
1557947892304,,28.404507070115322,,,,,,,,
1557947892308,,,43.134765625,,,,,,,
1557947892335,4.0,,,,,,,,,
1557947892344,,20.842762780002463,43.134765625,,,,,,,
1557947892352,3.0,,,10.254043897885635,,,,1003.40283203125,324.5632334726409,50.6002094568735
1557947892353,,,,,-7.582668304443359,-1.4629019498825073,-0.5387118458747864,,326.365409621,
1557947892384,,21.34668864906557,43.134765625,,,,,,,
1557947892420,,,,8.166908052990195,-7.046350955963135,-1.8603515625,-1.4198049306869507,,327.19355639748574,49.614593970988075
1557947892431,,14.176072460839231,,,,,,,,
1557947892445,3.0,,,,,,,,,
1557947892450,,,,,,,,1003.412841796875,,
1557947892465,,19.51591904665484,0.0,,,,,,,
1557947892473,,,,7.579637262527418,-7.194795608520508,-1.8196488618850708,-1.0032011270523071,,327.09048884291025,49.69246069926405
1557947892505,,18.918893886423852,,,,,,,,
1557947892541,,,,,,,,,324.4478237662352,49.077909457679084
1557947892542,,,,8.174701034258788,-11.365622520446777,-3.2011454105377197,-0.4309694766998291,,,
1557947892544,,19.244873327303576,,,,,,,,
1557947892563,3.0,,,,,,,1003.411376953125,,
1557947892584,,19.040122521121667,0.0,,,,,,,
1557947892592,,,,8.103520567831103,-13.032037734985352,-7.127756118774414,2.949746608734131,,321.4103464347767,48.98146462973072
1557947892624,,23.802020091627497,,,,,,,,
1557947892653,,,,7.478367188067229,-15.852493286132812,-8.142929077148438,4.747847080230713,1003.41552734375,316.1004890721171,48.13922291938739
1557947892665,3.0,22.72006146677187,0.0,,,,,,,
1557947892704,,29.842790026594365,,,,,,,,
1557947892727,2.0,,,10.343682141960196,-14.976188659667969,-10.024828910827637,3.474092721939087,,313.43944395638556,47.61936565657577
1557947892744,,32.447145869500424,0.0,,,,,,,
1557947892750,,,,,,,,1003.41796875,,
1557947892771,2.0,,,,,,,,,
1557947892772,,,,7.705959332530839,-10.956201553344727,-9.976943016052246,3.1843855381011963,,304.96641329097173,47.525490232199786
1557947892784,,30.847176925071594,,,,,,,,
1557947892824,,31.71083706403175,,,,,,,,
1557947892846,,,,,,,,,276.0767006868663,
1557947892847,,,,8.77507698047052,-7.26183557510376,-7.185218811035156,1.30009126663208,,268.44622508199234,46.0904674623686
1557947892849,,,,,,,,1003.420166015625,,
1557947892864,,32.52151003937189,,,,,,,,
1557947892867,,,42.16796875,,,,,,,
1557947892871,2.0,,,,,,,,,
1557947892895,6.0,,,6.365437834754574,-4.561093330383301,-5.602602958679199,1.2162915468215942,,254.3261818410141,46.59701895835903
1557947892905,,25.686586147249663,42.16796875,,,,,,,
1557947892946,,21.44937617736687,42.16796875,,,,,,,
1557947892953,,,,,,,,1003.426025390625,,
1557947892954,,,,6.485297962364145,-3.849993944168091,-4.015198707580566,-0.0766167938709259,,239.229578643075,47.15427468031749
1557947892977,6.0,,,,,,,,,
1557947892985,,16.05193845402593,,,,,,,,
1557947893012,,,,,,,,,222.35142988316477,46.462398171030806
1557947893017,,,,6.433343230455655,-2.444554567337036,-4.2282891273498535,-0.6871568560600281,,193.46819912858166,
1557947893025,,17.443861293926105,0.0,,,,,,,
1557947893062,,,,,,,,1003.43310546875,,
1557947893064,,20.739115265987284,,,,,,,,
1557947893072,7.0,,,,-1.7909175157546997,-4.89150333404541,0.33998700976371765,,222.00024887679945,46.510101313820016
1557947893073,,,,8.56819620492287,,,,,,
1557947893085,7.0,,,,,,,,,
1557947893104,,20.224442697649803,,,,,,,,
1557947893139,,,,8.061450978721153,-4.2282891273498535,-7.731113433837891,-0.4309694766998291,,225.47518957931345,46.04252320866453
1557947893145,,17.807082776351344,0.0,,,,,,,
1557947893150,,,,,,,,1003.431884765625,,
1557947893187,,23.582802516250972,,,,,,,,
1557947893193,,,,9.568996242392096,-11.427873611450195,-12.653742790222168,3.033546209335327,,242.97728978028266,46.31770781977692
1557947893194,7.0,,,,,,,,,
1557947893224,,29.475815270948033,0.0,,,,,,,
1557947893258,,,,,,,,,259.41503477269964,45.53450567843194
1557947893259,5.0,,,8.735533171760146,-20.064022064208984,-15.184491157531738,3.782954216003418,1003.4365234375,,
1557947893264,,33.07228654189138,,,,,,,,
1557947893298,5.0,,,,,,,,,
1557947893305,,30.25962440478519,0.0,,,,,,,
1557947893318,,,,17.042278897481147,-17.89720344543457,-5.779779434204102,,,278.9183325891584,46.402037795930816
1557947893319,,,,,,,1.8531687259674072,,,
1557947893344,,29.211622129913867,,,,,,,,
1557947893357,,,,,,,,1003.431884765625,,
1557947893377,,,,11.694118645228116,-12.210801124572754,-0.8786988258361816,-1.113337755203247,,311.1505109617309,45.9244632720068
1557947893384,,30.736290032363197,,,,,,,,
1557947893408,5.0,,,,,,,,,
1557947893424,,34.3947036421786,0.0,,,,,,,
1557947893433,2.0,,,8.285358374331993,-8.356019020080566,-2.8731298446655273,1.1277034282684326,,308.6376160641915,46.96578271682071
1557947893451,,,,,,,,1003.433837890625,,
1557947893464,,29.33757505820209,,,,,,,,
1557947893493,,,,7.795122274500514,-7.417463302612305,-2.913832426071167,0.8260248303413391,,313.4812754499573,46.771067653604064
1557947893504,,26.96406913492364,,,,,,,,
1557947893506,,,53.8330078125,,,,,,,
1557947893508,2.0,,,,,,,,,
1557947893544,,18.606604919851726,53.8330078125,,,,,,,
1557947893553,,,,7.631785141085752,-7.735901832580566,-1.7789461612701416,-1.0750293731689453,1003.444580078125,319.71501493560413,46.676567311710485
1557947893584,,15.923693918997584,53.8330078125,,,,,,,
1557947893609,2.0,,,,,,,,,
1557947893617,3.0,,,7.119783332185441,-9.217958450317383,-1.9058427810668945,0.023942748084664345,,322.10059852210907,46.318950078558636
1557947893625,,16.747403668740922,,,,,,,,
1557947893650,,,,,,,,1003.44775390625,,
1557947893664,,19.6826846448575,0.0,,,,,,,
1557947893673,,,,7.232133093664182,-11.837294578552246,-4.285751819610596,1.0870007276535034,,315.75942016081797,46.39904998398683
1557947893704,,19.655344618749883,,,,,,,,
1557947893709,3.0,,,,,,,,,
1557947893732,,,,,,,,,311.4544919458369,
1557947893733,,,,,,,,,308.49261114811213,46.88315564070759
1557947893734,,,,5.959218028441152,-12.443046569824219,-6.146103382110596,2.667222023010254,,,
1557947893744,,27.73646744135572,,,,,,,,
1557947893752,,,,,,,,1003.44482421875,,
1557947893784,,28.88594934589638,0.0,,,,,,,
1557947893793,,,,8.672999733508666,-15.550814628601074,-9.519637107849121,0.9768640995025635,,304.3348256984207,47.07813495542647
1557947893810,3.0,,,,,,,,,
1557947893824,,33.16366223727525,,,,,,,,
1557947893853,,,,9.327006875250847,-13.005701065063477,-10.764659881591797,4.168432235717773,1003.447021484375,296.2819985160298,47.85205877523267
1557947893864,,28.08089196627084,0.0,,,,,,,
1557947893904,,29.9415972660184,,,,,,,,
1557947893926,,,,5.521203696825613,-9.545973777770996,,,,282.98986299491634,48.21861258837841
1557947893927,3.0,,,,,-7.527599811553955,1.5371243953704834,,,
1557947893944,,31.717688939118656,0.0,,,,,,,
1557947893950,,,,,,,,1003.453125,,
1557947893973,4.0,,,6.788635732145286,-6.174834728240967,-6.859597206115723,1.1684061288833618,,267.0126161865308,47.24244680888271
1557947893984,,28.074211174776703,,,,,,,,
1557947894024,,25.918655918555544,,,,,,,,
1557947894046,4.0,,,7.185075964794878,-4.108575344085693,-5.494860649108887,-0.7733507752418518,,250.96023729727517,46.19364705515501
1557947894050,,,,,,,,1003.453857421875,,
1557947894064,,21.19088606589818,0.0,,,,,,,
1557947894092,,,,,,,,,213.26305723014082,
1557947894093,,,,7.266787331422131,-3.1412885189056396,-4.795732498168945,-1.2857255935668945,,193.98512150534657,45.99198449070438
1557947894105,,15.916323865320045,,,,,,,,
1557947894144,,19.48573187166702,0.0,,,,,,,
1557947894149,4.0,,,,,,,,,
1557947894153,6.0,,,7.289523291052098,-2.672010660171509,-5.059102535247803,-0.651242733001709,1003.459228515625,191.31720863440455,45.14321273775962
1557947894184,,15.668154781500338,,,,,,,,
1557947894224,,,,6.5641250778081135,,,,,232.02755397464676,44.05135914633241
1557947894225,,,,,-3.6345090866088867,-5.588237285614014,0.5435003638267517,,,
1557947894227,,20.889392596389825,0.0,,,,,,,
1557947894250,,,,,,,,1003.464111328125,,
1557947894265,,20.12586172913741,,,,,,,,
1557947894268,6.0,,,,,,,,,
1557947894273,,,,6.575916635416485,-9.06472396850586,-10.640157699584961,0.23942747712135315,,229.53577802202108,44.59973938959046
1557947894304,,19.93571181396798,,,,,,,,
1557947894334,,,,5.439967330105238,-15.93389892578125,-12.117424964904785,,,236.27908718579124,44.78657219312301
1557947894335,3.0,,,,,,5.83245325088501,,,
1557947894344,,29.18868031137336,0.0,,,,,,,
1557947894352,,,,,,,,1003.4814453125,,
1557947894371,3.0,,,,,,,,,
1557947894384,,36.002839187078926,,,,,,,,
1557947894392,,,,,,,,,272.35236245699843,44.662734766934896
1557947894393,,,,13.280220548338043,-17.092727661132812,-8.705583572387695,5.195576190948486,,279.9526144747951,
1557947894424,,29.784072401324924,,,,,,,,
1557947894425,,,0.0,,,,,,,
1557947894452,,,,,,,,,284.84419105268313,
1557947894453,,,,13.505751903269076,-12.747118949890137,-3.5147953033447266,,1003.48046875,295.16664228494506,46.479749834861465
1557947894454,,,,,,,0.936161458492279,,,
1557947894464,,28.5688397813311,,,,,,,,
1557947894473,3.0,,,,,,,,,
1557947894504,,24.655008758755663,0.0,,,,,,,
1557947894524,2.0,,,5.900176947574989,-8.693612098693848,-3.598595142364502,1.0175668001174927,,287.05585411725747,46.30764059482755
1557947894544,,27.43131858690527,,,,,,,,
1557947894550,,,,,,,,1003.482666015625,,
1557947894572,,,,,,,,,283.6583267787963,45.91525035163058
1557947894573,,,,5.100844421790143,-5.978504180908203,-3.011997699737549,0.9265843629837036,,,
1557947894584,,24.85667516887564,,,,,,,,
1557947894588,2.0,,,,,,,,,
1557947894624,,18.864619477492926,0.0,,,,,,,
1557947894633,,,,3.8228216064165044,-6.325674057006836,-3.4884583950042725,,,279.25505408505086,45.74585831792885
1557947894634,,,,,,,0.06943397223949432,,,
1557947894652,,,,,,,,1003.485107421875,,
1557947894665,,22.0739588757342,,,,,,,,
1557947894694,2.0,,,3.5802990834278683,-8.056735038757324,-5.5044379234313965,1.0846065282821655,,268.4660941022879,45.35356920736014
1557947894704,,19.273313652788126,0.0,,,,,,,
1557947894745,,18.185281114419233,,,,,,,,
1557947894758,,,,4.110053989027955,-9.158101081848145,,,1003.48388671875,272.95626729284345,45.17633423968458
1557947894759,,,,,,-5.39190673828125,2.1835787296295166,,,
1557947894785,,16.366857199814365,0.0,,,,,,,
1557947894801,2.0,,,,,,,,,
1557947894824,,14.984980932427591,,3.699040602973464,-11.42308521270752,-5.734288215637207,1.0462981462478638,,271.60143096907973,45.40010167144955
1557947894864,,19.2721202202011,,,,,,1003.491455078125,,
1557947894872,,,,,,,,,271.2093644503426,44.85633024378447
1557947894873,,,,4.216704600368347,-11.135771751403809,-3.6369035243988037,0.4429408311843872,,290.5794804081753,
1557947894904,,27.17474726209786,0.0,,,,,,,
1557947894906,2.0,,,,,,,,,
1557947894932,,,,3.8944045249959696,,,,,288.3280929633882,44.46627358925038
1557947894933,,,,,-9.009655952453613,-4.022381782531738,0.6225114464759827,,,
1557947894944,,28.769996031219456,,,,,,,,
1557947894955,,,,,,,,1003.489013671875,,
1557947894984,,25.148126930460908,0.0,,,,,,,
1557947895005,,,,2.2796077303823448,-10.518049240112305,-5.865973472595215,0.5219519138336182,,257.7780023531877,43.59560546648808
1557947895006,2.0,,,,,,,,,
1557947895024,,23.305541069339295,,,,,,,,
1557947895054,,,,,,,,1003.490234375,250.7148559211533,
1557947895055,,,,3.722486910415908,-12.040807723999023,-6.103006362915039,0.08379961550235748,,,43.62812725112657
1557947895064,,31.714576242924117,0.0,,,,,,,
1557947895104,,34.115231242673325,,,,,,,,
1557947895115,2.0,,,3.762883244763343,-9.9003267288208,-6.905088424682617,1.0606637001037598,,230.9176345741414,42.23428901694434
1557947895145,,32.705767804096304,,,,,,,,
1557947895156,,,,,,,,1003.4873046875,,
1557947895173,,,,4.436138535230811,-8.116591453552246,-6.543552875518799,0.28731298446655273,,215.79122443066433,40.920747214903564
1557947895185,,25.664007445679022,,,,,,,,
1557947895187,,,0.0,,,,,,,
1557947895225,2.0,,,,,,,,,
1557947895227,,24.04072159656609,,,,,,,,
1557947895257,3.0,,,5.073374618549432,-6.747066497802734,-6.533976078033447,-0.31604427099227905,1003.493896484375,213.96965396015696,40.5982348232551
1557947895264,,17.018116680606134,0.0,,,,,,,
1557947895293,,,,6.733157302267642,-4.805309772491455,-6.19159460067749,0.016759924590587616,,205.64394022985653,40.46069061153771
1557947895305,,22.74848751036544,,,,,,,,
1557947895343,3.0,,,,,,,,,
1557947895345,,23.00759092635495,0.0,,,,,,,
1557947895366,,,,7.437155322895643,-3.960130453109741,-6.7446722984313965,0.11971373856067657,1003.496337890625,205.52572331570195,39.64751563971211
1557947895385,,22.675667973564995,,,,,,,,
1557947895424,,21.744089297965566,,,,,,,,
1557947895430,,,,,,,,,202.96668366013,39.60531775899102
1557947895431,,,,5.580742913563135,-6.14131498336792,-7.503657341003418,0.014365648850798607,,,
1557947895452,3.0,,,,,,,1003.49462890625,,
1557947895464,,19.83687129474371,0.0,,,,,,,
1557947895472,,,,,-9.500482559204102,-11.238725662231445,,,214.80759522791243,39.395469957906954
1557947895473,,,,7.785113375211217,,,2.545114040374756,,,
1557947895504,,16.303540668055426,,,,,,,,
1557947895535,,,,6.879306346169166,-11.272245407104492,-6.727912425994873,4.134912490844727,,214.46817580729783,39.71351733764421
1557947895544,,17.764079521333585,0.0,,,,,,,
1557947895550,,,,,,,,1003.4970703125,,
1557947895552,3.0,,,,,,,,,
1557947895585,,22.441592661248908,,,,,,,,
1557947895593,,,,6.6132581770123195,-10.884373664855957,-4.142095565795898,0.6105400919914246,,236.52144961829998,39.997775157423355
1557947895625,,20.473918787976896,0.0,,,,,,,
1557947895665,,22.250776759778972,,,,,,,,
1557947895667,,,,,,,,1003.4951171875,231.4432176307738,40.43167517204064
1557947895668,3.0,,,5.172593910983573,-10.11102294921875,-4.814886569976807,2.135693073272705,,,
1557947895705,,23.077021652282262,,,,,,,,
1557947895713,,,,,,,,,237.50705957591117,
1557947895714,,,,5.033055899512946,-8.317710876464844,-5.296135902404785,3.1532599925994873,,240.2112680721026,41.05920345598473
1557947895745,,20.250526248727038,0.0,,,,,,,
1557947895759,,,,,,,,1003.491943359375,,
1557947895784,,17.461432890825968,,,,,,,,
1557947895788,,,,,,,,,237.71036698674578,
1557947895789,2.0,,,4.675309261761754,-7.56112003326416,-4.611373424530029,1.5419130325317383,,222.16256149223562,41.202267393121396
1557947895825,,17.787949929417703,0.0,,,,,,,
1557947895839,,,,3.078129337520738,-7.601822376251221,-4.300117492675781,0.7446194887161255,,212.25449783691835,41.211219290718766
1557947895853,,,,,,,,1003.490966796875,,
1557947895864,,17.720479739627702,,,,,,,,
1557947895894,,,,,,,,,195.1254625684153,
1557947895895,2.0,,,2.4408838308243666,-7.673650741577148,-4.525179386138916,0.79011070728302,,,41.582944378991726
1557947895904,,15.694906889769038,0.0,,,,,,,
1557947895944,,15.549257114106958,,,,,,,,
1557947895954,3.0,,,1.6899554437485826,-7.802941799163818,-5.016005516052246,-0.1005595400929451,1003.4931640625,161.47773409317568,40.91071809038209
1557947895984,,20.160830149880052,,,,,,,,
1557947895995,3.0,,,,,,,,,
1557947896012,,,,2.955461818798871,-9.052753448486328,-4.630527496337891,-0.4070267081260681,,121.66342760976914,41.431683196639675
1557947896025,,18.636498776893603,0.0,,,,,,,
1557947896050,,,,,,,,1003.4931640625,,
1557947896064,,18.698700361889372,,,,,,,,
1557947896072,,,,4.721330960008581,-10.364815711975098,-4.273780345916748,-1.412622094154358,,83.78013171794106,41.5052996999538
1557947896096,3.0,,,,,,,,,
1557947896104,,20.837548392897727,0.0,,,,,,,
1557947896133,2.0,,,6.047176856261788,-11.040000915527344,-3.0598831176757812,-1.3264282941818237,,64.8029360524917,40.74640543419132
1557947896144,,15.257204090049324,,,,,,,,
1557947896151,,,,,,,,1003.496337890625,,
1557947896184,,21.705028566079406,0.0,,,,,,,
1557947896192,,,,6.884292980230176,-13.161328315734863,-4.10139274597168,-1.0774236917495728,,60.59480186333349,40.932665360168656
1557947896204,2.0,,,,,,,,,
1557947896224,,23.02462967327353,,,,,,,,
1557947896257,,,,6.245404194074494,-12.76387882232666,-1.283331274986267,1.161223292350769,1003.486083984375,56.59293938710965,41.30140420341528
1557947896264,,22.7472059852267,,,,,,,,
1557947896304,2.0,26.59133261736267,0.0,,,,,,,
1557947896312,,,,8.933355904545904,-16.130229949951172,-2.3775148391723633,3.536343812942505,,27.36970181564334,41.13484545968822
1557947896344,,34.59658693970121,,,,,,,,
1557947896360,,,,,,,,1003.486083984375,,
1557947896372,,,,10.077952396777768,-18.668161392211914,-5.868367671966553,2.8922839164733887,,34.987422042242315,40.17066131275357
1557947896384,,39.14266681854383,,,,,,,,
1557947896386,,,56.4404296875,,,,,,,
1557947896415,2.0,,,,,,,,,
1557947896424,,37.26489352001486,56.4404296875,,,,,,,
1557947896432,,,,13.429745445991916,,,,,73.68933318156928,38.03640128553057
1557947896433,,,,,-21.091167449951172,-6.972128391265869,4.374340057373047,,,
1557947896449,,,,,,,,1003.482421875,,
1557947896468,,39.00774141210591,56.4404296875,,,,,,,
1557947896492,8.0,,,14.794015158890584,-20.70808219909668,-6.356799602508545,3.9457647800445557,,139.30827876439162,38.07126227520468
1557947896504,,40.1093023893641,,,,,,,,
1557947896521,8.0,,,,,,,,,
1557947896544,,27.469777704859588,,,,,,,,
1557947896546,,,75.3662109375,,,,,,,
1557947896561,,,,,-16.067977905273438,,,1003.486083984375,169.50387572647932,37.45143965855212
1557947896562,,,,14.91108033552435,,-5.947378635406494,5.863578796386719,,,
1557947896585,,26.986020276504377,75.3662109375,,,,,,,
1557947896613,,,,12.78417457753555,-11.90433406829834,-2.5810282230377197,4.343214511871338,,158.89640070015275,38.684227921590065
1557947896624,,20.388966813894577,75.3662109375,,,,,,,
1557947896634,8.0,,,,,,,,,
1557947896656,,,,,,,,1003.486083984375,,
1557947896667,,30.34311670046317,75.3662109375,,,,,,,
1557947896677,11.0,,,15.287193593458127,-8.475732803344727,-1.1085492372512817,4.881926536560059,,146.35647391233283,40.754489215658786
1557947896705,,24.275620965114648,,,,,,,,
1557947896742,,,,,,,,,145.46912305612145,
1557947896743,11.0,,,13.10275679839069,-4.065478801727295,-1.1971373558044434,2.1907615661621094,,144.40914599882717,43.289114761553996
1557947896744,,20.681037877627553,,,,,,,,
1557947896745,,,0.0,,,,,,,
1557947896760,,,,,,,,1003.4892578125,,
1557947896784,,21.08941444838546,,,,,,,,
1557947896798,,,,11.620032120625787,0.3471698462963104,0.33519846200942993,-1.13009774684906,,141.9217550276486,45.193861901215556
1557947896824,,25.184355968665987,0.0,,,,,,,
1557947896856,10.0,,,8.822110610285794,3.849993944168091,1.3647366762161255,-2.0064022541046143,1003.4814453125,219.1146032354958,45.01295854433547
1557947896864,,23.430232140390018,,,,,,,,
1557947896904,,19.611142463450705,,,,,,,,
1557947896912,,,,8.040283347683411,6.974522590637207,3.6800003051757812,-4.860377788543701,,220.72103640752607,44.98515668491936
1557947896944,,19.53604660220963,0.0,,,,,,,
1557947896958,10.0,,,,,,,1003.4814453125,,
1557947896982,,,,6.5961163509695115,6.004841327667236,6.603409767150879,-2.6504621505737305,,239.9599717521595,43.757238949106686
1557947896984,,17.614283387228827,,,,,,,,
1557947897024,,16.895826625396477,0.0,,,,,,,
1557947897032,,,,1.988109528746094,,,,,331.50674231117335,45.19732609285205
1557947897033,,,,,6.7398834228515625,9.296969413757324,-4.6616530418396,,312.3222025930899,
1557947897056,,,,,,,,1003.454345703125,,
1557947897066,,18.09498637798475,,,,,,,,
1557947897077,10.0,,,,,,,,,
1557947897100,,,,3.298061500850327,5.482889175415039,9.976943016052246,-5.0016398429870605,,307.4450103935939,44.48112671407921
1557947897104,,15.366471795432828,0.0,,,,,,,
1557947897144,,19.00921109328837,,,,,,,,
1557947897163,,,,3.1147194176652975,3.1484713554382324,8.94261646270752,-0.13407939672470093,1003.444091796875,317.5688363096973,45.62927779148456
1557947897184,,16.386590159693867,,,,,,,,
1557947897186,10.0,,,,,,,,,
1557947897212,,,,,,,,,22.706745329653927,44.75746426883324
1557947897214,7.0,,,3.5970860131855176,4.225894927978516,5.34162712097168,-2.1787900924682617,,341.81172362708566,
1557947897224,,16.50655476702372,0.0,,,,,,,
1557947897254,,,,,,,,1003.444091796875,,
1557947897266,,15.594030841302256,,,,,,,,
1557947897281,,,,,,,,,293.1050384764359,
1557947897282,,,,5.091645912007405,3.9888617992401123,2.822849988937378,-2.197944164276123,,303.2446626200895,45.00408008826605
1557947897304,,16.338576186234352,0.0,,,,,,,
1557947897307,7.0,,,,,,,,,
1557947897332,,,,2.2001533758278646,3.6345090866088867,6.174834728240967,-4.659258842468262,,297.7276831859439,44.77326954974718
1557947897344,,16.286900569632635,,,,,,,,
1557947897355,,,,,,,,1003.4345703125,,
1557947897385,,14.665633365663988,0.0,,,,,,,
1557947897402,,,,0.6438134791732733,,,,,330.51696935326305,44.361305068677225
1557947897403,6.0,,,,5.470917701721191,7.831672668457031,-4.178009510040283,,,
1557947897425,,19.9949499919839,,,,,,,,
1557947897426,6.0,,,,,,,,,
1557947897452,,,,,,,,,342.2760791604509,43.35550943769779
1557947897453,,,,0.732870752748131,8.01124382019043,7.467742919921875,-6.763826370239258,1003.431884765625,319.8194007166894,
1557947897465,,16.77780705266081,,,,,,,,
1557947897504,,19.701449147239842,0.0,,,,,,,
1557947897511,,,,,7.4557719230651855,,,,3.814982524116772,42.985844294851454
1557947897512,,,,2.979703432469613,,9.016839027404785,-3.787742853164673,,,
1557947897540,6.0,,,,,,,,,
1557947897545,,15.90451834609561,,,,,,,,
1557947897564,,,,,,,,1003.431884765625,,
1557947897572,,,,,,,,,0.2611712526986594,44.200009940858315
1557947897573,,,,2.8386982072601263,9.208380699157715,8.643332481384277,-3.7111258506774902,,,
1557947897584,,16.181074176450917,,,,,,,,
1557947897585,,,0.0,,,,,,,
1557947897624,,18.756123985949834,,,,,,,,
1557947897649,,,,4.0092356870952015,,,,,8.092074303135405,42.70887521208099
1557947897650,6.0,,,,7.9489922523498535,8.573898315429688,-1.9010541439056396,1003.427734375,,
1557947897665,,17.837650704270693,0.0,,,,,,,
1557947897694,,,,,,,,,21.359765430983032,
1557947897695,,,,2.875710772682141,5.533169269561768,6.804529190063477,1.0032011270523071,,,43.709905192129085
1557947897704,,20.051809990621756,,,,,,,,
1557947897745,,15.612731476622434,,,,,,,,
1557947897763,7.0,,,2.6978124551763125,4.666441440582275,5.083045482635498,-2.166818618774414,1003.43994140625,354.2856976813931,43.360161860364485
1557947897784,,15.66635207863704,,,,,,,,
1557947897785,,,0.0,,,,,,,
1557947897812,,,,,4.180403709411621,4.867560863494873,-0.6536370515823364,,27.46612701125099,42.90654509483489
1557947897813,,,,3.8115309437378047,,,,,,
1557947897824,,17.381187324409474,,,,,,,,
1557947897861,,,,,,,,1003.43994140625,,
1557947897870,,16.1997189149348,,,,,,,,
1557947897871,,,0.0,,,,,,,
1557947897885,7.0,,,3.928722225118945,4.204346656799316,5.023188591003418,-3.038334846496582,,33.580095714707,43.68869233091617
1557947897905,,18.807293582462457,,,,,,,,
1557947897945,,18.67928906946253,0.0,,,,,,,
1557947897946,,,,,,,,,10.052215651524023,
1557947897947,6.0,,,1.7110274478487684,6.316096782684326,5.7821736335754395,-2.7486274242401123,,6.423704548824617,43.48348467246927
1557947897956,,,,,,,,1003.43896484375,,
1557947897986,,20.43734201802307,,,,,,,,
1557947897990,6.0,,,,,,,,,
1557947897993,,,,1.6332575725319727,6.004841327667236,7.968146324157715,-3.2945220470428467,,7.513648634215485,43.284291076248344
1557947898024,,17.48759183930245,,,,,,,,
1557947898051,,,,0.8976129147898418,,,,,355.87271732136816,42.69711453524971
1557947898052,,,,,7.324086666107178,8.188420295715332,-7.024802207946777,1003.440185546875,319.4412131423458,
1557947898064,,18.701822035225756,,,,,,,,
1557947898065,,,0.0,,,,,,,
1557947898104,,16.63773550599512,,,,,,,,
1557947898112,,,,,,,,,359.40301756087877,
1557947898113,6.0,,,2.698167344945785,7.324086666107178,9.387951850891113,-3.7015488147735596,,,42.25103354685289
1557947898144,,20.58710867267326,0.0,,,,,,,
1557947898163,,,,,,,,1003.440185546875,,
1557947898171,,,,3.1839352290020706,6.596227169036865,10.348055839538574,-2.444554567337036,,5.7206987907645725,42.55844421992146
1557947898184,,16.847558256206124,,,,,,,,
1557947898212,6.0,,,,,,,,,
1557947898224,,18.514663541265207,0.0,,,,,,,
1557947898236,,,,3.0142831930202925,,,,,3.3879091514492643,43.072520191281555
1557947898237,,,,,4.158855438232422,9.90272045135498,-1.752609133720398,,,
1557947898258,,,,,,,,1003.439208984375,,
1557947898264,,17.92304319886486,,,,,,,,
1557947898300,,,,,,,,,336.99826733782965,
1557947898301,5.0,,,1.3592029331092552,5.150084972381592,6.378347873687744,-3.4597270488739014,,,42.37019669675064
1557947898304,,18.482414965316913,,,,,,,,
1557947898321,5.0,,,,,,,,,
1557947898344,,18.906307281741384,0.0,,,,,,,
1557947898356,,,,3.5877609104886123,3.2059340476989746,4.750241279602051,,1003.441650390625,327.25842611912793,43.44998467084926
1557947898357,,,,,,,-2.8108785152435303,,,
1557947898383,,18.16466766969074,,,,,,,,
1557947898411,,,,2.149130747528103,4.625739097595215,5.432609558105469,-3.6416919231414795,,331.2793004269065,42.635225226253766
1557947898421,5.0,,,,,,,,,
1557947898423,,14.090816103760627,0.0,,,,,,,
1557947898452,,,,,,,,1003.441650390625,,
1557947898464,,15.504294265537757,,,,,,,,
1557947898471,,,,2.205160620931098,4.903474807739258,7.776604652404785,,,335.2617378451308,42.57721659714028
1557947898472,6.0,,,,,,-4.486870765686035,,,
1557947898504,,16.878584492210468,0.0,,,,,,,
1557947898522,6.0,,,,,,,,,
1557947898538,,,,,,,,,332.8588124083232,
1557947898539,,,,1.2272219494869754,4.209135055541992,7.417463302612305,-3.2418479919433594,,342.7293083156581,42.80708811485103
1557947898544,,18.367101099918415,,,,,,,,
1557947898550,,,,,,,,1003.4482421875,,
1557947898584,,18.203861623339705,,,,,,,,
1557947898591,,,,0.5709594819212022,6.095823764801025,7.484503269195557,-3.5531039237976074,,352.6492317406954,42.827601313002226
1557947898622,6.0,,,,,,,,,
1557947898624,,19.23551804793839,0.0,,,,,,,
1557947898664,,16.287537301405585,,,,,,,,
1557947898665,,,,3.1273561369254903,7.889135360717773,7.673650741577148,-1.2330515384674072,1003.453857421875,30.350573954355298,43.580571419907415
1557947898704,,14.047406551781283,0.0,,,,,,,
1557947898711,,,,3.149136221998367,8.559532165527344,9.469356536865234,-4.0798444747924805,,33.697301760864434,43.76386212857377
1557947898729,6.0,,,,,,,,,
1557947898744,,15.645332173968402,,,,,,,,
1557947898753,,,,,,,,1003.451904296875,,
1557947898774,,,,3.7740193741730184,,,,,4.2976741271956485,43.20641627463165
1557947898775,,,,,8.63375473022461,9.361614227294922,-5.3512043952941895,,,
1557947898783,,15.69085808066106,,,,,,,,
1557947898784,,,0.0,,,,,,,
1557947898824,,12.145945754148109,,,,,,,,
1557947898847,5.0,,,4.267268161297671,6.658478260040283,8.140534400939941,-0.7757450342178345,,352.09308956394267,43.54210213606404
1557947898848,,,,,,,,1003.45361328125,,
1557947898864,,13.789785003732664,,,,,,,,
1557947898894,,,,1.388026563717272,5.334444046020508,6.059909343719482,-3.284945011138916,,352.7497140686701,42.92030255867865
1557947898904,,13.358148273611462,0.0,,,,,,,
1557947898944,,14.30542325514429,,,,,,,,
1557947898957,,,,,,,,,355.50724072906996,
1557947898958,,,,1.2615830670320416,4.000833034515381,3.3855044841766357,-0.371112585067749,1003.4599609375,46.82090577930239,43.203583086511046
1557947898959,5.0,,,,,,,,,
1557947898987,,14.095612712252269,0.0,,,,,,,
1557947899011,,,,5.167745826163292,,,,,46.3175379129454,43.2401479845929
1557947899012,,,,,3.4286015033721924,4.836435317993164,-3.4573328495025635,,332.9752978695232,
1557947899024,,16.709911741367,,,,,,,,
1557947899054,,,,,,,,1003.4658203125,,
1557947899064,,13.30050075379991,0.0,,,,,,,
1557947899080,5.0,,,3.3001808116969253,5.236279010772705,4.843617916107178,-1.1731946468353271,,33.14746470248923,43.05617690865056
1557947899104,,12.76089089660703,,,,,,,,
1557947899131,,,,,,,,,35.97825026437937,43.064368489204945
1557947899142,,,,,,,,,339.6589282554204,
1557947899143,,,,3.4114751373731336,6.0575151443481445,7.714353561401367,-5.482889175415039,,,
1557947899144,,15.048652177530728,0.0,,,,,,,
1557947899165,,,,,,,,1003.476806640625,,
1557947899184,5.0,13.741370939994129,,,,,,,,
1557947899191,4.0,,,3.8372514575903542,7.046350955963135,8.526012420654297,-7.149304389953613,,331.4349348248817,43.254339465613256
1557947899224,,13.4821432315264,,,,,,,,
1557947899252,,,,,,,,,331.5834760714039,
1557947899253,,,,3.9404525585999823,7.024802207946777,9.914691925048828,-5.557111740112305,1003.47265625,,43.18958180689011
1557947899263,,15.564802745394609,,,,,,,,
1557947899264,,,0.0,,,,,,,
1557947899304,4.0,15.25625007247779,,,,,,,,
1557947899311,,,,,,,,,344.27595001169414,
1557947899344,,14.991928459076052,0.0,,,,,,,
1557947899351,,,,,,,,1003.48583984375,,
1557947899374,5.0,,,3.1206604390621764,5.470917701721191,8.200390815734863,-2.1931557655334473,,2.6164817599351977,43.939052298999414
1557947899383,,14.147460281635327,,,,,,,,
1557947899416,5.0,,,,,,,,,
1557947899424,,16.09589569912049,0.0,,,,,,,
1557947899431,,,,1.7416591784059205,4.3408203125,6.6776323318481445,-4.486870765686035,,330.6086339070192,43.09357633884729
1557947899464,,,,,,,,1003.490478515625,,
1557947899465,,16.41191845873574,,,,,,,,
1557947899491,,,,1.4360400539964506,3.340013265609741,,,,328.9498131840549,43.439378423353546
1557947899492,,,,,,4.405465602874756,-2.2242813110351562,,,
1557947899504,,14.586292855086686,,,,,,,,
1557947899540,5.0,,,,,,,,,
1557947899544,,14.950233109779871,0.0,,,,,,,
1557947899564,4.0,,,3.884993188329197,3.689577579498291,4.446168422698975,-6.114977836608887,1003.48974609375,354.98698991574514,43.463281587065296
1557947899584,,19.30853196486981,,,,,,,,
1557947899611,,,,1.2394061830169112,4.199557781219482,6.51242733001709,-4.252232074737549,,334.0579665227875,44.40088996490157
1557947899624,,19.65289182105091,,,,,,,,
1557947899625,,,0.0,,,,,,,
1557947899656,4.0,,,,,,,1003.494384765625,,
1557947899665,,17.899586385185657,,,,,,,,
1557947899680,,,,,,,,,345.89282056654986,44.9135574053097
1557947899681,,,,0.9215627885147321,4.834040641784668,7.477320194244385,-4.1708269119262695,,,
1557947899705,,18.92706511727713,0.0,,,,,,,
1557947899731,,,,2.9679517777116557,6.907482624053955,8.935433387756348,-5.937801361083984,,340.90508773175276,45.96744101350187
1557947899744,,18.158314019331918,,,,,,,,
1557947899749,,,,,,,,1003.4970703125,,
1557947899769,4.0,,,,,,,,,
1557947899784,,15.407563876859463,,,,,,,,
1557947899791,,,,3.000567223648764,8.523618698120117,8.719948768615723,-3.16044282913208,,335.01270914799215,46.498799256455825
1557947899824,,15.237273012215134,0.0,,,,,,,
1557947899864,,16.980581125144315,,,,,,,,
1557947899869,,,,4.9736417286821215,9.727938652038574,9.466962814331055,-5.329655647277832,1003.50439453125,359.57862185784194,46.712571411502886
1557947899870,4.0,,,,,,,,,
1557947899904,,15.721363337941126,0.0,,,,,,,
1557947899916,,,,2.485682880973682,7.108602046966553,7.829278469085693,-2.0351336002349854,,22.405373477810883,47.48775237306522
1557947899944,,14.287938856539142,,,,,,,,
1557947899956,,,,,,,,1003.51123046875,,
1557947899976,4.0,,,2.563970655508434,6.533976078033447,5.51162052154541,-5.2841644287109375,,19.65647676142737,47.735344629575046
1557947899984,,13.42881263446116,0.0,,,,,,,
1557947900024,,11.448776583738486,,,,,,,,
1557947900030,,,,4.010281700076049,,,,,32.97638553925333,46.32108573204424
1557947900031,,,,,5.023188591003418,3.993650436401367,-1.242628574371338,,,
1557947900048,,,,,,,,1003.51611328125,,
1557947900064,,12.03719725404188,,,,,,,,
1557947900085,4.0,,,,,,,,,
1557947900090,,,,,,,,,336.33330402589934,
1557947900091,,,,2.855794697539056,4.470110893249512,4.374340057373047,-3.1149516105651855,,,46.96869480722807
1557947900104,,14.613950667750233,0.0,,,,,,,
1557947900144,,14.1376909398795,,,,,,,,
1557947900155,,,,,,,,1003.520751953125,347.67746276553595,47.31733199929746
1557947900156,,,,3.6400262561312258,4.0798444747924805,4.039141654968262,-2.3392064571380615,,,
1557947900184,,13.385332827358951,0.0,,,,,,,
1557947900186,4.0,,,,,,,,,
1557947900211,,,,0.9324518985972584,5.846818923950195,5.724710941314697,-4.7598185539245605,,326.87293707256157,47.9228379404293
1557947900224,,11.50537154583293,,,,,,,,
1557947900256,,,,,,,,1003.510009765625,,
1557947900264,,12.305937199932595,0.0,,,,,,,
1557947900281,5.0,,,0.8624029049608566,6.498061656951904,7.015225410461426,-4.958543300628662,,326.33500503390974,47.48077953513376
1557947900304,5.0,18.02575945886413,,,,,,,,
1557947900330,,,,,,,,,334.6034305525466,
1557947900331,,,,0.9837809995737749,7.477320194244385,7.905895233154297,-5.485283374786377,,336.49710220748,47.95820489034196
1557947900345,,15.945416222110065,,,,,,,,
1557947900349,,,,,,,,1003.508544921875,,
1557947900384,,16.00432032597404,0.0,,,,,,,
1557947900393,,,,2.386617355565401,6.620169639587402,8.56432056427002,-5.995264053344727,,334.32719891949114,48.64050149317134
1557947900414,5.0,,,,,,,,,
1557947900424,,15.445109760377294,,,,,,,,
1557947900463,,,,,,,,1003.516845703125,321.9153193955887,47.65390208285072
1557947900464,4.0,15.72195675801707,0.0,3.1254299630968587,6.955368518829346,8.30095100402832,-6.670449733734131,,,
1557947900504,,15.684944022401757,,,,,,,,
1557947900521,,,,3.173689750589305,5.964138507843018,8.808537483215332,,,316.98348568273263,45.861472624031755
1557947900522,4.0,,,,,,-5.01121711730957,,,
1557947900545,,12.48865341381771,0.0,,,,,,,
1557947900571,,,,,,,,1003.526123046875,331.4656587233157,
1557947900572,,,,2.0688986503001114,4.0439300537109375,6.514821529388428,-3.3040993213653564,,327.9414518663184,45.33916144712488
1557947900585,,12.042892112770971,,,,,,,,
1557947900622,4.0,,,,,,,,,
1557947900625,,15.968587976421546,,,,,,,,
1557947900632,5.0,,,3.7960358622538184,3.751828670501709,3.7925312519073486,-2.825244188308716,,321.3489464492329,45.80248199907292
1557947900652,,,,,,,,1003.5322265625,,
1557947900665,,14.36485381049977,0.0,,,,,,,
1557947900701,,,,2.9550878067009276,4.1971635818481445,3.9744961261749268,-5.004034519195557,,292.8892523099877,46.024732442282236
1557947900705,,16.62634714889282,,,,,,,,
1557947900725,5.0,,,,,,,,,
1557947900745,,12.693355390429383,0.0,,,,,,,
1557947900752,,,,,,,,,299.94030930719117,
1557947900753,,,,0.7700555632100554,5.147690773010254,6.301731109619141,-5.46134090423584,1003.5380859375,315.4231289668432,47.39715132422442
1557947900785,,13.906808275302993,,,,,,,,
1557947900811,,,,,,,,,316.8965749406388,47.861686511423486
1557947900813,,,,,,,,,319.9098392514896,
1557947900814,,,,0.762388942009968,4.59221887588501,8.947404861450195,-5.69119119644165,,,
1557947900824,,11.479706115516333,0.0,,,,,,,
1557947900833,5.0,,,,,,,,,
1557947900857,,,,,,,,1003.536865234375,,
1557947900864,,14.847758316003416,,,,,,,,
1557947900883,,,,2.5615871943611808,3.723097324371338,6.706363677978516,-4.187586784362793,,318.2929797956912,47.21317477155375
1557947900904,,15.095362486398233,,,,,,,,
1557947900936,,,,,,,,,320.90386400215823,47.05549311896615
1557947900937,5.0,,,1.8978362210501547,6.876357078552246,5.686402797698975,-5.636122703552246,,,
1557947900944,,16.349031963133445,0.0,,,,,,,
1557947900948,,,,,,,,1003.538818359375,,
1557947900984,,12.31172432160847,,,,,,,,
1557947900991,,,,2.430419713417401,6.426233768463135,5.542746067047119,-2.755810260772705,,355.30026721419836,48.593518347675605
1557947901024,,14.706474571425812,0.0,,,,,,,
1557947901048,5.0,,,,,,,,,
1557947901052,,,,2.5023659001566103,8.605023384094238,7.75266170501709,-7.285778045654297,1003.53515625,352.9958322514487,47.964472299498574
1557947901064,,16.724696159408413,,,,,,,,
1557947901105,,15.11185869516629,0.0,,,,,,,
1557947901111,,,,3.197415207968148,7.9537811279296875,8.63375473022461,-4.984879970550537,,338.15604587384934,48.228689995679424
1557947901145,,14.079282582657216,,,,,,,,
1557947901153,5.0,,,,,,,1003.5419921875,,
1557947901174,,,,3.0957769054200797,6.148497581481934,6.969734191894531,-3.7015488147735596,,336.56567218410504,48.65737253882394
1557947901184,,13.118859475792286,,,,,,,,
1557947901225,,15.904771206742197,0.0,,,,,,,
1557947901230,,,,,,,,,337.06152342728046,
1557947901231,,,,0.9275764089918846,4.678412914276123,3.8978793621063232,-5.087833881378174,,297.4151064087674,47.892292415979284
1557947901248,,,,,,,,1003.545166015625,,
1557947901257,5.0,,,,,,,,,
1557947901264,,13.576302312951881,,,,,,,,
1557947901293,,,,6.134270950188949,3.407052993774414,1.0989720821380615,-4.252232074737549,,266.98889493954334,47.593315303932854
1557947901304,,15.700542385977945,0.0,,,,,,,
1557947901345,,16.200840962677482,,,,,,,,
1557947901364,,,,,,,,1003.548828125,,
1557947901365,6.0,,,7.117935694070429,2.1500587463378906,0.7637736797332764,-4.913052082061768,,260.30740581795095,49.28688384149419
1557947901384,,14.690200871051324,,,,,,,,
1557947901385,,,0.0,,,,,,,
1557947901415,,,,,,,,,234.417587429396,
1557947901416,,,,9.00820040632683,1.6496553421020508,-0.596174418926239,-2.257801055908203,,234.2598373803254,49.58454505046234
1557947901424,,14.102797706477743,,,,,,,,
1557947901449,,,,,,,,1003.544677734375,,
1557947901465,,17.996921195220835,,,,,,,,
1557947901496,,,,10.563310400216787,-1.58022141456604,0.12689656019210815,-4.087027072906494,,249.01510870468223,51.17145130756564
1557947901497,6.0,,,,,,,,,
1557947901504,,22.397745883728064,0.0,,,,,,,
1557947901544,,15.802627717188859,,,,,,,,
1557947901547,,,,11.681136250031367,-3.7925312519073486,,,,227.85154899534427,53.426486931079566
1557947901548,9.0,,,,,0.1532335877418518,-2.7510218620300293,,,
1557947901550,,,,,,,,1003.53759765625,,
1557947901584,,21.00067576001865,0.0,,,,,,,
1557947901591,,,,14.840753192552784,-13.668914794921875,4.089421272277832,6.51242733001709,,143.79325418098878,54.42797049129941
1557947901608,9.0,,,,,,,,,
1557947901624,,19.48875174021612,,,,,,,,
1557947901654,,,,10.297585539549353,-15.720808029174805,6.536370277404785,12.957815170288086,1003.542724609375,124.12886635295527,57.34016314160997
1557947901664,,26.10494188636954,0.0,,,,,,,
1557947901704,,22.250498163324433,,,,,,,,
1557947901718,21.0,,,13.011290122593412,-17.901992797851562,1.9178141355514526,7.563514232635498,,111.6390185121299,59.94627320490317
1557947901719,21.0,,,,,,,,,
1557947901744,,19.147256311889134,,,,,,,,
1557947901760,,,,,,,,1003.55908203125,,
1557947901781,,,,8.996978676487778,-15.79263687133789,-1.6831752061843872,4.216318130493164,,119.3514085757198,60.09514327009565
1557947901784,,16.225218091298576,0.0,,,,,,,
1557947901822,21.0,,,,,,,,,
1557947901824,,28.24545682041223,,,,,,,,
1557947901830,,,,,,,,,105.50412210905691,58.22714736519197
1557947901831,,,,7.125922963109542,-17.444686889648438,-3.936187744140625,1.862745761871338,,106.14464358904235,
1557947901848,,,,,,,,1003.57568359375,,
1557947901865,,33.82921416782701,0.0,,,,,,,
1557947901890,,,,,,,,,96.93509654995313,56.600736243874536
1557947901891,20.0,,,8.184981330006721,-17.442291259765625,-0.6129343509674072,1.4174107313156128,,91.33531814759397,
1557947901905,,34.69910054380814,,,,,,,,
1557947901928,20.0,,,,,,,,,
1557947901945,,24.752840145140354,,,,,,,,
1557947901946,,,0.0,,,,,,,
1557947901957,,,,9.105247543966835,-13.161328315734863,1.13009774684906,4.103786945343018,1003.594970703125,81.9351063778239,53.800462424052974
1557947901985,,18.285773354196568,,,,,,,,
1557947902014,,,,8.614118705744666,-12.598673820495605,0.4070267081260681,2.0854134559631348,,69.64719307980988,52.0934769818324
1557947902025,,18.71693370890459,0.0,,,,,,,
1557947902036,20.0,,,,,,,,,
1557947902057,,,,,,,,1003.61669921875,,
1557947902065,,15.30209865581418,,,,,,,,
1557947902079,6.0,,,6.820664299525113,-10.23073673248291,0.7685621976852417,0.282524436712265,,69.8847538893321,51.07846676996581
1557947902105,,18.27904571710161,,,,,,,,
1557947902132,,,,,,,,,71.22471406108355,50.040611679857705
1557947902138,6.0,,,3.962330710468102,-10.879584312438965,-0.7733507752418518,0.45730647444725037,,73.75424729944109,
1557947902145,,19.02902219909285,0.0,,,,,,,
1557947902156,,,,,,,,1003.6298828125,,
1557947902185,,18.658919013558478,,,,,,,,
1557947902192,,,,,,,,,78.36832695172984,
1557947902193,,,,3.975768364113157,-13.09428882598877,-3.4956412315368652,1.3096683025360107,,,51.034327710786705
1557947902225,,20.101638528384456,0.0,,,,,,,
1557947902238,6.0,,,,,,,,,
1557947902253,7.0,,,6.4142245645062985,-15.50532341003418,-1.4078335762023926,1.8651400804519653,1003.6494140625,74.11474468383437,52.01539682333928
1557947902264,,18.933930936688533,,,,,,,,
1557947902304,,19.22773106737825,0.0,,,,,,,
1557947902312,,,,7.729366769453904,-17.104700088500977,-3.0814316272735596,0.2130904644727707,,73.63986895160008,54.31196479165273
1557947902338,7.0,,,,,,,,,
1557947902344,,19.197923707356995,,,,,,,,
1557947902351,,,,,,,,1003.65673828125,,
1557947902375,,,,8.160831728415415,-16.235576629638672,-4.714327335357666,,,77.24864721090046,55.80683789619594
1557947902376,,,,,,,-0.2777358889579773,,,
1557947902384,,19.6016271769985,,,,,,,,
1557947902424,,16.78080471786573,0.0,,,,,,,
1557947902432,,,,,,,,,99.66489776496462,54.805491155694945
1557947902445,20.0,,,9.460847181649815,,,,,,
1557947902464,,17.25231740100154,,,,,,,,
1557947902467,,,,,,,,1003.667236328125,,
1557947902493,,,,8.45363402464622,-7.668862342834473,-4.3408203125,-0.7326480746269226,,112.79038350051894,53.755746912209105
1557947902504,,16.97465589679887,0.0,,,,,,,
1557947902544,,12.149549234930708,,,,,,,,
1557947902565,20.0,,,8.2511336963711,-5.336838722229004,-3.7997140884399414,-1.0486923456192017,1003.6728515625,108.46376601982848,51.489439759502496
1557947902584,,19.446477058175017,0.0,,,,,,,
1557947902613,,,,7.989259423989111,,,,,118.08577452251643,50.97828795930402
1557947902614,22.0,,,,-4.098998546600342,-4.017592906951904,-1.9369683265686035,,,
1557947902624,,13.804266121508837,,,,,,,,
1557947902664,,14.805625724855208,,,,,,1003.6728515625,,
1557947902690,,,,,,,,,110.15427882054166,
1557947902691,22.0,,,8.422945708260078,-3.785348415374756,-4.288146018981934,-1.053480863571167,,114.80004372039014,49.650316421560795
1557947902704,,12.19092444133737,0.0,,,,,,,
1557947902732,,,,,,,,,113.17223205625766,
1557947902733,,,,7.625513778637056,,,,,,48.683851739749386
1557947902743,,,,,-6.079063892364502,-6.993676662445068,-0.24421602487564087,,122.47792766829315,
1557947902744,,13.582565138490315,,,,,,,,
1557947902768,,,,,,,,1003.6748046875,,
1557947902784,,15.94140640506427,0.0,,,,,,,
1557947902794,,,,11.158827881872972,-13.187665939331055,-11.779831886291504,3.3591675758361816,,134.3417613509302,47.96041883306433
1557947902795,22.0,,,,,,,,,
1557947902824,,18.969939929314016,,,,,,,,
1557947902863,,,,12.787920640457566,-15.670528411865234,-6.316096782684326,,1003.6796875,131.0014026958221,48.19598626501006
1557947902864,,18.30651213921168,0.0,,,,8.945011138916016,,,
1557947902904,,18.103948415881348,,,,,,,,
1557947902906,22.0,,,,,,,,,
1557947902912,,,,11.875325730524391,-16.611478805541992,-2.2721667289733887,4.654470443725586,,93.28601334436047,51.07265260564844
1557947902944,,27.821365101200335,,,,,,,,
1557947902968,,,,,,,,1003.6796875,,
1557947902972,,,,,,,,,71.2382583262077,
1557947902973,11.0,,,8.266057888298104,-11.207600593566895,-1.2498114109039307,2.171607255935669,,,53.045327071228705
1557947902984,,27.25553293180573,0.0,,,,,,,
1557947903010,11.0,,,,,,,,,
1557947903024,,22.327858547787287,,,,,,,,
1557947903032,,,,5.7272772245403205,-8.42066478729248,-2.6193366050720215,1.9441511631011963,,68.34756517510738,54.41593079293586
1557947903051,,,,,,,,1003.6796875,,
1557947903064,,19.251576781778038,0.0,,,,,,,
1557947903094,,,,4.733175497154657,-7.532388687133789,-2.9952378273010254,1.9680938720703125,,64.74296016138982,55.54528871570933
1557947903104,,15.78121819697385,,,,,,,,
1557947903116,11.0,,,,,,,,,
1557947903145,,16.511010226322366,0.0,,,,,,,
1557947903162,9.0,,,4.101246035038253,-7.307326793670654,-3.567469358444214,2.197944164276123,1003.676025390625,58.574541189870445,54.81981037310287
1557947903186,,18.97807807151645,,,,,,,,
1557947903212,,,,,,,,,44.66234743552491,53.15288840230428
1557947903213,,,,4.515589941608067,-9.067118644714355,-3.502824068069458,3.134105682373047,,,
1557947903224,,18.363190912147097,,,,,,,,
1557947903233,9.0,,,,,,,,,
1557947903254,,,,,,,,1003.676025390625,,
1557947903264,,18.88494055652786,0.0,,,,,,,
1557947903276,,,,4.210167639287457,-10.90113353729248,-3.227482557296753,2.135693073272705,,34.11015254524585,51.35526719669408
1557947903304,,17.79531869519454,,,,,,,,
1557947903332,10.0,,,5.7870319218365704,-12.208407402038574,-1.398256540298462,0.021548472344875336,,24.15460882991323,50.41974480780394
1557947903336,10.0,,,,,,,,,
1557947903344,,16.681459916235923,0.0,,,,,,,
1557947903349,,,,,,,,1003.68310546875,,
1557947903384,,13.320374863095171,,,,,,,,
1557947903392,,,,5.549533776298451,-12.924295425415039,-2.1500587463378906,-1.1947431564331055,,18.5575232296344,49.26452823284114
1557947903424,,14.654014002683605,0.0,,,,,,,
1557947903437,10.0,,,,,,,,,
1557947903455,,,,6.024762869952656,-12.52205753326416,-0.3974496126174927,0.30407288670539856,1003.6826171875,18.99314415716134,48.84987542996098
1557947903464,,19.19519838771699,,,,,,,,
1557947903505,,27.572849669343256,,,,,,,,
1557947903512,,,,5.209097884964966,-11.190840721130371,,,,28.308941618979304,49.3293053610392
1557947903513,6.0,,,,,-1.9417568445205688,0.8715160489082336,,,
1557947903537,6.0,,,,,,,,,
1557947903544,,26.829637721953542,0.0,,,,,,,
1557947903554,,,,,,,,1003.6826171875,,
1557947903574,,,,3.628919521344476,-12.773456573486328,-3.5195839405059814,1.0750293731689453,,28.519808341677788,43.4920949935146
1557947903584,,26.025662499357622,,,,,,,,
1557947903624,,33.42631451883698,0.0,,,,,,,
1557947903632,,,,4.354323218541352,-12.797398567199707,-4.374340057373047,2.169213056564331,,43.43427600766205,32.92786517157911
1557947903642,6.0,,,,,,,,,
1557947903665,,23.425166737847857,,,,,,,,
1557947903668,,,,,,,,1003.686767578125,,
1557947903702,11.0,,,5.30979006594739,-11.801380157470703,-5.054314136505127,1.6472610235214233,,65.26120076466452,27.464142798438413
1557947903705,,33.618728549415124,0.0,,,,,,,
1557947903744,,30.690931130481992,,,,,,,,
1557947903761,11.0,,,6.066967448788414,-8.490097999572754,-5.114171028137207,1.1085492372512817,1003.6845703125,75.11801751063922,27.03411124155422
1557947903784,,27.635226423983646,,,,,,,,
1557947903813,,,,7.296825858038484,-6.189200401306152,-4.968120098114014,1.4150164127349854,,103.87501270898213,26.19609791574604
1557947903825,,27.333314931827157,0.0,,,,,,,
1557947903850,,,,,,,,1003.6845703125,,
1557947903865,,18.768989361103284,,,,,,,,
1557947903868,11.0,,,,,,,,,
1557947903873,16.0,,,7.5552573082843955,-4.733481407165527,-4.338426113128662,0.90024733543396,,124.10262476616407,26.31121348228316
1557947903904,,19.217248041265353,0.0,,,,,,,
1557947903932,,,,,,,,,148.19947751645572,
1557947903933,,,,7.473022771003545,-4.8795318603515625,-4.889109134674072,1.331216812133789,,156.31096919362784,26.93432006940807
1557947903945,,16.01782929448133,,,,,,,,
1557947903966,,,,,,,,1003.6865234375,,
1557947903969,16.0,,,,,,,,,
1557947903984,,16.27234608217573,0.0,,,,,,,
1557947903992,,,,5.675012314568825,-6.289760112762451,-5.004034519195557,1.2330515384674072,,144.99159721048918,26.566520227996307
1557947904026,,16.378208936161435,,,,,,,,
1557947904052,,,,,,,,,141.83999766328355,26.03184238017546
1557947904053,12.0,,,4.341531530072231,,,,,,
1557947904054,,,,,-9.179649353027344,-5.930618762969971,1.764580488204956,1003.685302734375,127.61066456539601,
1557947904064,,14.175225304917491,,,,,,,,
1557947904081,12.0,,,,,,,,,
1557947904104,,16.559449122051113,0.0,,,,,,,
1557947904112,,,,2.5206278462373803,-15.00492000579834,-8.23151683807373,2.8036959171295166,,82.83047587612083,25.17298538308327
1557947904144,,16.59135420531154,,,,,,,,
1557947904150,,,,,,,,1003.685302734375,,
1557947904171,,,,,,,,,5.801047428613344,
1557947904172,,,,8.006633392612116,-13.05358600616455,-2.2123098373413086,4.642498970031738,,,24.300814461704736
1557947904184,,20.79650821253992,0.0,,,,,,,
1557947904192,12.0,,,,,,,,,
1557947904224,,15.687403654007197,,,,,,,,
1557947904233,,,,8.655785944098813,,,,,10.853977407245964,25.05960870852881
1557947904234,5.0,,,,-13.027249336242676,-0.3782954216003418,1.3072741031646729,,,
1557947904250,,,,,,,,1003.688720703125,,
1557947904264,,18.408426424677586,0.0,,,,,,,
1557947904294,5.0,,,5.790105851808453,-11.006481170654297,-2.7821474075317383,2.3032922744750977,,359.0407609758874,23.78680332079723
1557947904304,,18.682658137124008,,,,,,,,
1557947904345,,20.503990483390652,,,,,,,,
1557947904368,,,,,,,,1003.692138671875,358.1145249989575,
1557947904369,,,,3.196261164854956,-8.150111198425293,-4.053507328033447,2.4349775314331055,,354.1625860829246,24.522977105756475
1557947904385,,21.305343285145632,0.0,,,,,,,
1557947904413,6.0,,,2.1218406528395293,-6.167652130126953,-4.599401950836182,0.2968900799751282,,5.30903304420417,24.634950986213
1557947904424,,19.301482197259794,,,,,,,,
1557947904454,,,,,,,,1003.692138671875,,
1557947904464,,15.907678046499111,,,,,,,,
1557947904465,,,0.0,,,,,,,
1557947904474,,,,2.140137442872197,-7.194795608520508,-4.443774223327637,-0.56504887342453,,359.8626250055331,25.234333145312874
1557947904504,,18.881247088666363,,,,,,,,
1557947904514,6.0,,,,,,,,,
1557947904532,,,,2.332736779202163,-8.356019020080566,-4.23068380355835,-0.39505535364151,,4.280131640086154,25.709772252536883
1557947904544,,23.284813074181887,,,,,,,,
1557947904545,,,0.0,,,,,,,
1557947904549,,,,,,,,1003.694580078125,,
1557947904585,,19.092290562062622,,,,,,,,
1557947904592,,,,,,,,,4.895958144240581,
1557947904593,8.0,,,2.632727194289834,-7.424646377563477,-4.0128045082092285,-0.5363175868988037,,,26.726481196181098
1557947904624,8.0,19.217601814101812,0.0,,,,,,,
1557947904660,,,,3.257400889202696,-7.697593688964844,-4.72150993347168,-1.8651400804519653,1003.69482421875,11.68623083497016,26.34061465486846
1557947904665,,28.920194740294672,,,,,,,,
1557947904704,,27.93442717519815,,,,,,,,
1557947904712,,,,3.7802455608391554,,,,,9.025376110761727,26.59029072204136
1557947904713,,,,,-7.448588848114014,-3.289733648300171,-1.5490957498550415,,,
1557947904736,8.0,,,,,,,,,
1557947904744,,21.577106023967257,0.0,,,,,,,
1557947904750,,,,,,,,1003.69482421875,,
1557947904778,12.0,,,3.517746213363161,,,,,9.387693740568807,27.02938331089982
1557947904779,,,,,-9.287391662597656,-3.689577579498291,-0.596174418926239,,,
1557947904784,,28.47977439308842,,,,,,,,
1557947904824,,24.056219997231718,0.0,,,,,,,
1557947904832,,,,4.585698967989985,-8.142929077148438,-1.4198049306869507,-0.56504887342453,,5.33209688548402,26.243055778046365
1557947904840,12.0,,,,,,,,,
1557947904849,,,,,,,,1003.6865234375,,
1557947904864,,27.175403094715694,,,,,,,,
1557947904892,,,,,,,,,358.9271215691372,
1557947904893,,,,3.8797054639101582,-12.028836250305176,-4.980091571807861,0.016759924590587616,,,27.0241219903177
1557947904904,,24.727556203646166,0.0,,,,,,,
1557947904940,12.0,,,,,,,,,
1557947904944,,20.79107380160568,,,,,,,,
1557947904957,,,,7.1428697258974685,-14.652961730957031,-4.78136682510376,2.9281980991363525,1003.69287109375,352.6261977814932,26.98592962719523
1557947904984,,26.149013990003716,,,,,,,,
1557947905012,,,,10.653854861649183,,,,,341.3890442004886,27.861327873866326
1557947905013,,,,,-17.111881256103516,-5.4733123779296875,5.372752666473389,,,
1557947905024,,25.388988849746433,0.0,,,,,,,
1557947905040,12.0,,,,,,,,,
1557947905050,,,,,,,,1003.69287109375,,
1557947905065,,27.58410198091672,,,,,,,,
1557947905072,,,,,,,,,333.7108972903025,28.511806425028368
1557947905073,,,,7.924300144232228,-14.889994621276855,-6.730306625366211,2.8970725536346436,,,
1557947905106,,28.467497021983416,0.0,,,,,,,
1557947905132,,,,7.051439114046264,-11.463788032531738,-6.828471660614014,,,321.74625513815795,29.907095129583674
1557947905133,4.0,,,,,,3.002420663833618,,,
1557947905144,,26.7736275428911,,,,,,,,
1557947905150,,,,,,,,1003.689697265625,,
1557947905155,4.0,,,,,,,,,
1557947905185,,31.008253836345304,0.0,,,,,,,
1557947905193,,,,7.970560503961717,-7.161275863647461,-6.6776323318481445,2.0830190181732178,,292.9874362793066,30.72035037027174
1557947905224,,29.74115714595724,,,,,,,,
1557947905252,,,,,,,,1003.690185546875,248.88663967658346,31.44721270269181
1557947905253,,,,7.971544680748391,-5.3775410652160645,-5.6887969970703125,0.38787251710891724,,,
1557947905255,4.0,,,,,,,,,
1557947905264,,25.920419883575846,,,,,,,,
1557947905304,,29.31689881236941,0.0,,,,,,,
1557947905312,,,,,,,,,206.43423409796208,31.942378357590506
1557947905313,8.0,,,7.986337200410593,-3.871542453765869,-4.3863115310668945,0.30886146426200867,,205.6668213635761,
1557947905344,,19.83216529712943,,,,,,,,
1557947905350,,,,,,,,1003.686279296875,,
1557947905359,8.0,,,,,,,,,
1557947905373,,,,,,,,,197.3516261245975,
1557947905374,,,,7.368969278090088,-4.283357620239258,-4.482082366943359,-0.03830839693546295,,,31.783635890685527
1557947905384,,15.269806786652522,0.0,,,,,,,
1557947905424,,14.74330260585652,,,,,,,,
1557947905433,,,,6.216951809941018,-4.738269805908203,-4.242654800415039,-0.3064671754837036,,190.2693210119412,32.97260680992741
1557947905450,,,,,,,,1003.688720703125,,
1557947905464,,15.339339517421617,0.0,,,,,,,
1557947905465,8.0,,,,,,,,,
1557947905493,9.0,,,5.429114881001624,-5.188393592834473,-4.71193265914917,0.6081457734107971,,212.83656655798688,33.05330250350322
1557947905504,,17.019486185588967,,,,,,,,
1557947905544,,15.978294553598491,,,,,,,,
1557947905555,,,,4.467288331758148,,,,1003.693359375,233.43199113216315,32.16721873414126
1557947905584,9.0,,,,,,,,,
1557947905585,,15.73624028358536,0.0,,,,,,,
1557947905614,,,,8.848502563690023,-14.95464038848877,-10.137359619140625,1.7454262971878052,,253.23234070581492,32.45922200319466
1557947905624,,17.3260343400674,,,,,,,,
1557947905664,,17.17237316931064,0.0,,,,,1003.69677734375,,
1557947905683,3.0,,,12.215404003581016,-18.50295639038086,-5.482889175415039,2.4876515865325928,,310.42835506078546,32.754229397863675
1557947905703,3.0,,,,,,,,,
1557947905704,,14.552852027648912,,,,,,,,
1557947905732,,,,12.772385636163166,-17.31300163269043,-3.8332340717315674,,,319.7457200510179,32.167834126255215
1557947905733,,,,,,,2.0542876720428467,,,
1557947905744,,13.477723943125493,0.0,,,,,,,
1557947905750,,,,,,,,1003.69580078125,,
1557947905784,,15.772038212602473,,,,,,,,
1557947905792,,,,,,,,,329.0274656047288,33.051559936229026
1557947905793,,,,13.494562820188278,-11.949825286865234,-2.14048171043396,-1.6328954696655273,,335.7209963498279,
1557947905803,3.0,,,,,,,,,
1557947905825,,13.701869400997113,,,,,,,,
1557947905862,6.0,,,9.042635489269534,-7.860404014587402,-1.8675343990325928,-0.9026415944099426,1003.705322265625,338.8883855868473,32.041628512025376
1557947905864,,11.577020409055539,0.0,,,,,,,
1557947905903,6.0,,,,,,,,,
1557947905904,,12.158994171031551,,,,,,,,
1557947905913,,,,6.708895673540264,-7.2666239738464355,-1.4030450582504272,-0.9984126091003418,,338.7094687815388,32.58524768921934
1557947905944,,13.035707057167471,0.0,,,,,,,
1557947905950,,,,,,,,1003.716796875,,
1557947905977,,,,7.222561445176199,-7.609005451202393,-0.7326480746269226,-1.69035804271698,,344.1428125492977,32.489652982286906
1557947905988,,15.401534815737536,,,,,,,,
1557947906016,6.0,,,,,,,,,
1557947906025,,15.30471230729956,0.0,,,,,,,
1557947906039,,,,,,,,,343.9626782627696,
1557947906040,8.0,,,7.163395807991704,-9.440625190734863,-1.0247496366500854,-1.7597919702529907,,348.5397160916421,32.59618256791423
1557947906050,,,,,,,,1003.710205078125,,
1557947906065,,13.185459948491584,,,,,,,,
1557947906094,,,,6.473609168124153,-9.534002304077148,,,,348.82699982454835,33.606265935155186
1557947906095,,,,,,-1.3862850666046143,-1.3168511390686035,,,
1557947906106,,19.72962816743484,,,,,,,,
1557947906138,8.0,,,,,,,,,
1557947906144,,20.265629092610766,0.0,,,,,,,
1557947906164,,,,,,,,,348.58960550088716,
1557947906165,,,,5.011012347916992,-12.890775680541992,-6.395108222961426,1.7262721061706543,1003.71142578125,340.4566738599104,33.450416324710346
1557947906185,,17.582740527251225,,,,,,,,
1557947906212,,,,,,,,,338.46773643398103,
1557947906213,6.0,,,7.205779341640302,-14.696059226989746,-4.85080099105835,1.6161354780197144,,,34.30305395363675
1557947906224,,22.89943697717241,0.0,,,,,,,
1557947906246,6.0,,,,,,,,,
1557947906250,,,,,,,,1003.711669921875,,
1557947906264,,19.055848016361786,,,,,,,,
1557947906276,,,,7.021578091777217,-17.760730743408203,-7.625765323638916,3.749434232711792,,338.1216370883581,34.00920375880062
1557947906304,,35.05058182671709,0.0,,,,,,,
1557947906335,,,,8.452393449023173,-12.787821769714355,-7.781393051147461,3.565075159072876,,330.71182782009436,34.88420695460464
1557947906345,,24.209469002968575,,,,,,,,
1557947906350,,,,,,,,1003.730224609375,,
1557947906353,6.0,,,,,,,,,
1557947906384,,22.52659054623784,,,,,,,,
1557947906392,,,,,,,,,315.27753665449524,35.469389406900945
1557947906393,3.0,,,9.246455982817823,-8.059128761291504,-5.789356708526611,2.2554068565368652,,310.0154257292286,
1557947906424,,29.124808345862284,0.0,,,,,,,
1557947906461,3.0,,,6.679209481251026,-4.932206153869629,-5.7821736335754395,1.4461419582366943,1003.727783203125,289.4893275751279,35.36611827244567
1557947906464,,24.834004853793118,,,,,,,,
1557947906504,,23.474085704892875,0.0,,,,,,,
1557947906514,,,,6.729231354803076,-3.782954216003418,-3.5219781398773193,-0.05027977004647255,,252.17463810151423,36.752190017404985
1557947906545,,12.125771183938351,,,,,,,,
1557947906550,,,,,,,,1003.73486328125,,
1557947906575,6.0,,,5.593667482587941,-4.498842239379883,-2.849187135696411,-1.599375605583191,,80.13387621066477,37.15288740905992
1557947906585,,10.572804657997308,0.0,,,,,,,
1557947906624,,13.724067932827397,,,,,,,,
1557947906632,,,,,,,,,102.59071174877715,37.532096661289884
1557947906633,,,,5.395809963966145,-4.300117492675781,-3.7063374519348145,-1.41022789478302,,132.4519299698577,
1557947906650,,,,,,,,1003.7275390625,,
1557947906664,,17.483594529679745,,,,,,,,
1557947906681,6.0,,,,,,,,,
1557947906699,,,,5.893095677159522,-6.177228927612305,-6.253845691680908,0.5027977228164673,,203.4723908662777,37.51405885979394
1557947906707,,15.866485311169843,0.0,,,,,,,
1557947906744,,13.990808707779179,,,,,,,,
1557947906754,,,,,,,,1003.736328125,240.6600251609508,
1557947906755,7.0,,,6.02910738030288,-10.369604110717773,-7.788576126098633,1.7765519618988037,,,37.794714171450025
1557947906785,,13.603769967266341,0.0,,,,,,,
1557947906786,7.0,,,,,,,,,
1557947906813,,,,7.976161248018657,-15.306598663330078,,,,285.2588518371946,37.357021942418996
1557947906814,,,,,,-7.4557719230651855,1.5730385780334473,,,
1557947906824,,16.197533042305025,,,,,,,,
1557947906850,,,,,,,,1003.729248046875,,
1557947906864,,16.074124682705452,0.0,,,,,,,
1557947906875,,,,,,,,,316.5681487094933,37.51055744087455
1557947906876,,,,8.426230809894843,-15.842916488647461,-5.767807960510254,1.6352896690368652,,,
1557947906893,7.0,,,,,,,,,
1557947906904,,16.463692681551493,,,,,,,,
1557947906933,,,,,,,,,331.77774714196653,
1557947906934,3.0,,,7.0619285149728,-12.103058815002441,-2.516382932662964,0.5818088054656982,,336.18821544000264,37.32265172994608
1557947906944,,17.839108679884564,,,,,,,,
1557947906950,,,,,,,,1003.7255859375,,
1557947906985,,19.703716535494863,0.0,,,,,,,
1557947906992,3.0,,,,,,,,,
1557947906994,,,,5.659664240607056,-8.949799537658691,-2.109356164932251,-0.371112585067749,,339.28011059612584,37.672450503287
1557947907024,,17.655832425474102,,,,,,,,
1557947907054,,,,6.618987323947681,-7.635342597961426,-0.706311047077179,-0.8739103078842163,1003.737060546875,346.2588051541676,37.26159517703624
1557947907064,,28.492313288167384,0.0,,,,,,,
1557947907103,3.0,,,,,,,,,
1557947907104,,18.018344412832487,,,,,,,,
1557947907113,,,,6.467946467964246,-7.115784645080566,-0.8284190893173218,,,352.0879447239504,37.42677423895807
1557947907114,4.0,,,,,,-1.812466025352478,,,
1557947907144,,11.4554732212901,0.0,,,,,,,
1557947907151,,,,,,,,1003.741455078125,,
1557947907173,,,,,,,,,355.5451269346224,
1557947907174,,,,6.282987895074161,-7.915472507476807,-1.240234375,-1.4868446588516235,,354.0729411307286,37.388713398702194
1557947907185,,26.426770179094866,,,,,,,,
1557947907208,4.0,,,,,,,,,
1557947907224,,23.92286095583033,,,,,,,,
1557947907233,,,,,,,,,354.883042974314,37.51305359785979
