timestamp,AccX,BrightnessEV,LinearAccelerometerSensor,AccY,AccZ,BarometerSensor,CompassSensor,MagneticRotationSensor,PitchSensor,DecibelSource
1557947314116,-2.865042114257813,-0.33614077781156226,0.49322286990091124,1.8121316528320313,9.554481353759765,997.6028442382812,216.60391235351562,40.10857697550103,0.0,27.37987326333431
1557947314166,-3.7854780578613285,-0.34396028227086134,0.3541816896402704,1.8613792419433595,9.810149688720704,997.6283264160156,211.21987915039062,40.108579855941095,0.0,26.866362692622936
1557947314223,-2.60817626953125,-0.3837064610636178,0.2250436331782801,2.127825164794922,9.446705474853516,997.6283264160156,207.94650268554688,40.108579216918464,0.0,25.84331224367531
1557947314278,-2.452350311279297,-0.3756691419981995,0.13801085172383365,1.9112255859375,9.156309356689453,997.6283264160156,189.100830078125,40.10858046098406,0.0,25.276299008713387
1557947314348,-2.399210815429688,-0.367676351244669,0.12176149148647962,2.235750732421875,8.87354736328125,997.6283264160156,184.6689453125,41.85989131436938,0.0,26.711728427150835
1557947314413,-2.4831861877441406,-0.35182240004383175,0.06688045293259683,2.381547546386719,8.81457000732422,997.6283264160156,179.45274353027344,41.859889772746484,0.0,25.490032620257878
1557947314478,-2.023492126464844,-0.34396028227086134,0.13748334435408188,2.4364833068847656,8.64362548828125,997.6283264160156,174.29013061523438,41.859889830897195,0.0,31.35768514567822
1557947314547,-1.8483563232421876,-0.33614077781156226,0.3084369976241984,2.820883941650391,9.648785247802735,997.6283264160156,168.52813720703125,41.859889043717224,0.0,27.846172926328755
1557947314612,-1.5311659240722657,-0.3129333866502368,0.1862125152835184,2.2879920959472657,9.84682342529297,997.6283264160156,159.68975830078125,41.859888586870724,0.0,26.434526764861875
1557947314678,-1.1427236938476564,-0.32062777844023754,0.17176438294165777,2.4069946289062503,10.22912841796875,997.6283264160156,153.7490692138672,41.859892424444816,0.0,28.06179973983887
1557947314747,-1.6842974853515627,-0.32062777844023754,0.29186358160743164,1.7223184204101563,10.952574005126953,997.6283264160156,148.4028778076172,41.85988868991987,0.0,27.20159303405957
1557947314811,-1.9413130187988281,-0.32062777844023754,0.1846508198037116,1.4398558044433594,10.355914764404297,997.6283264160156,145.19647216796875,45.40811242363518,0.0,28.208579894397
1557947314878,-2.6375152587890627,-0.3756691419981995,0.3854616557619897,0.2472857666015625,10.074799346923829,997.6613616943359,136.70611572265625,45.40812019155476,0.0,26.40481436970422
1557947314946,-2.9629385375976565,-0.4245787424791461,0.1358931080149639,0.48409332275390626,10.000553741455079,997.6613616943359,132.40980529785156,45.408145064001914,0.0,27.363965022766426
1557947315011,-1.9058367919921877,-0.4752048155491139,0.40300465475242647,0.9276210021972656,8.795110473632812,997.6613616943359,128.9703826904297,45.40815531910001,0.0,26.78518379040114
1557947315078,-1.9455043029785157,-0.5099702337097906,0.190885352339246,1.0575508117675783,8.406668243408204,997.6613616943359,125.18427276611328,45.40817181238587,0.0,25.276299008713387
1557947315147,-1.774559783935547,-0.5187940840967967,0.175586971509442,1.507515106201172,9.013506317138672,997.6613616943359,117.85592651367188,45.408188725002276,0.0,24.969296480732147
1557947315212,-1.5093113708496095,-0.5276722354432497,0.1866258904565979,1.6958235168457032,9.501641235351563,997.6613616943359,112.8861083984375,45.408196754454465,0.0,25.965970956264602
1557947315278,-1.097966766357422,-0.5099702337097906,0.2816133732563754,1.7528549194335938,10.357112274169923,997.6613616943359,108.06600189208984,45.40819760759589,0.0,25.19827993775719
1557947315348,-1.8305433654785157,-0.44966972344197637,0.19521926794769243,1.8291961669921877,10.321785736083985,997.6613616943359,102.86849975585938,45.40819573934716,0.0,25.69373909615046
1557947315412,-1.5070660400390625,-0.3837064610636178,0.11415649855119674,1.5872991943359376,10.608140258789064,997.6613616943359,97.55440521240234,45.40819754774404,0.0,25.09202522331103
1557947315478,-2.373314666748047,-0.3052798141068017,0.23231694359054664,1.4558724975585937,10.484647064208986,997.6613616943359,90.58041381835938,48.410071318828734,0.0,27.323937598229687
1557947315547,-1.833387451171875,-0.35182240004383175,0.3940700245131935,1.922901306152344,9.09823013305664,997.6613616943359,87.43026733398438,48.41009207741392,0.0,30.46495164334708
1557947315612,-3.343596954345703,-0.5187940840967967,0.3646619027293229,1.5501763916015625,9.125174102783204,997.6613616943359,83.51789093017578,48.41009854777564,0.0,25.76341350205793
1557947315678,-2.215692443847656,-0.6195947248842888,0.20204891857616317,1.5238311767578125,8.960666198730468,997.6613616943359,78.79842376708984,48.41009993720846,0.0,26.24282095835668
1557947315747,-2.5559349060058594,-0.6101343956352225,0.11553801067497603,1.969903564453125,9.119336242675782,997.6613616943359,75.9928207397461,48.410097053221826,0.0,25.352941200427708
1557947315811,-2.0781285095214845,-0.6580688726989246,0.13549815235330354,1.8314414978027345,8.780890045166016,997.6613616943359,73.3311996459961,48.410102284485376,0.0,27.505083948513462
1557947315878,-1.7077986145019532,-0.6678498934915099,0.13575739245137655,2.0911514282226564,8.775501251220703,997.6967620849609,72.25572967529297,48.41010141915567,0.0,24.04833716619938
1557947315947,-1.7296531677246094,-0.697597236885562,0.06574807277393534,2.0432510375976562,8.597221984863282,997.6967620849609,71.20545196533203,48.410096618360456,0.0,23.99673721481038
1557947316011,-2.084864501953125,-0.7177751188231922,0.14988207280352256,2.199825439453125,8.184380493164063,997.6967620849609,70.16018676757812,48.41009774125485,0.0,24.533183400470374
1557947316078,-1.7931211853027345,-0.7076509015494848,0.19808080476251388,2.1773721313476564,7.538773040771485,997.6967620849609,70.16018676757812,48.41009642709889,0.0,25.526682161121933
1557947316147,-2.232457580566406,-0.7076509015494848,0.2150697375193391,2.27287353515625,8.491541748046876,997.6967620849609,70.16018676757812,48.41009924191338,0.0,27.041505168397993
1557947316211,-1.9874171447753908,-0.7076509015494848,0.07497132375027014,2.6496400451660156,8.29200668334961,997.6967620849609,71.1614990234375,48.41010046996331,0.0,23.09630167425899
1557947316278,-1.9401155090332032,-0.7076509015494848,0.20276353190226928,1.924398193359375,8.85049530029297,997.6967620849609,71.1614990234375,48.410098587169955,0.0,28.075350280688532
1557947316347,-1.8863772583007814,-0.7076509015494848,0.7017940633019415,0.9404942321777344,10.970836029052736,997.6967620849609,70.02751922607422,48.410097349590515,0.0,26.82145076373832
1557947316412,-3.0659243774414064,-0.7279708859290808,0.6508085407767616,0.7747888183593751,12.942685546875001,997.6967620849609,70.02751922607422,48.41009760128846,0.0,26.020599913279625
1557947316478,-2.734663238525391,-0.7694901553673477,0.15049282653529472,1.0780581665039064,12.927566986083985,997.6967620849609,71.91801452636719,49.26960803597566,0.0,29.319661147281728
1557947316547,-2.325114898681641,-0.8122398028266847,0.4053713196438281,0.8848100280761719,11.21153549194336,997.6967620849609,74.5634994506836,49.26962080092885,0.0,29.845273133437928
1557947316611,-0.09654922485351564,-0.8451544252994199,1.0280674660886508,0.5728587341308594,8.55545883178711,997.6967620849609,75.7081527709961,49.26965222428529,0.0,27.323937598229687
1557947316678,-0.9139993286132813,-0.8902423148279579,0.11151269561894772,-0.00987945556640625,8.947194213867188,997.6967620849609,75.7081527709961,49.2696653711351,0.0,30.24895960107485
1557947316747,-1.8573376464843752,-0.9133259279409992,0.3063521868408484,0.5813909912109375,9.636211395263672,997.6967620849609,80.06700897216797,49.269682258785934,0.0,28.2020145948564
1557947316811,-1.713486785888672,-0.9250077329886343,0.47909257482030704,1.8073416137695313,8.412506103515625,997.6967620849609,83.69638061523438,49.26969251411874,0.0,29.88558956878616
1557947316878,-1.5694862365722657,-0.9367849007649881,0.3422330101597205,1.5874488830566407,7.323969726562501,997.7262878417969,84.9291000366211,49.26971968094217,0.0,29.537596917332287
1557947316947,-2.4939637756347657,-0.9576110206573536,0.3468849921465703,2.5342300415039065,8.028554534912109,997.7262878417969,86.20405578613281,49.269731248354866,0.0,32.30704313612569
1557947317011,-0.5718109130859376,-0.9575841820663343,0.4345215729921781,1.9682569885253907,9.085207214355469,997.7262878417969,86.20405578613281,49.269740772079096,0.0,31.604685311190373
1557947317078,-1.8784437561035157,-0.9757486033857493,0.5769602690157993,-0.08996292114257813,9.680369567871095,997.7262878417969,86.20405578613281,49.26973939226126,,33.178544893314694
1557947317146,-3.241359558105469,-0.9382433878231013,1.5050771319883,1.2067904663085938,14.389127655029297,997.7262878417969,86.20405578613281,49.269737642129236,0.0,29.965116721541783
1557947317211,-4.793332214355469,-0.9575268013348608,0.5808727761290996,0.3001258850097656,11.663894805908203,997.7262878417969,86.20405578613281,49.269738846596496,0.0,30.519239160461066
1557947317278,-3.559897155761719,-0.9702181777957005,0.6139145838293357,2.355052642822266,11.121273193359375,997.7262878417969,87.87934112548828,49.26974196060174,0.0,30.595634179012677
1557947317347,-4.702770538330078,-0.9451160844956594,0.48881323006856847,1.5132032775878907,9.636660461425782,997.7262878417969,86.82008361816406,49.26973976583386,0.0,39.2147838037569
1557947317411,-4.144431610107422,-0.919080051811844,0.9598613461347935,0.6831793212890626,6.838678894042969,997.7262878417969,88.15248107910156,49.269740569152006,,39.90915754506084
1557947317478,-3.6369868469238282,-0.8825541757867297,0.3370569119574674,2.070494384765625,7.632627868652344,997.7262878417969,88.15248107910156,49.269739273319054,,37.55722444903458
1557947317546,-2.6265879821777345,-0.9098615217824652,0.5275133209879912,0.9090596008300782,6.842870178222657,997.7262878417969,90.71554565429688,49.2697403525553,330.68138485863096,37.890869150880285
1557947317611,-4.367467803955078,-0.9565547572305065,0.5039497325731433,1.2711566162109376,6.232589263916016,997.7262878417969,90.71554565429688,49.26973889918612,,35.585885831081995
1557947317678,-3.7270994567871094,-1.0048099258377277,0.30231192484743125,0.5170248413085938,7.414232025146485,997.7262878417969,93.40016174316406,49.269738940692974,145.042724609375,32.53338005326106
1557947317747,-4.328698425292969,-1.0959578138959232,1.0660804216623088,0.8256829833984375,9.155560913085939,997.7262878417969,93.40016174316406,49.26974145095867,145.042724609375,32.56477206241677
1557947317811,-2.9933253479003907,-1.0855411979505847,0.7824030740402709,0.017214202880859376,13.123659210205078,997.7262878417969,94.77579498291016,49.26974025054778,,30.166155475571777
1557947317878,-3.0732591247558596,-1.1491998351729027,0.13142980137312915,-0.25701553344726563,12.525353393554688,997.7433013916016,91.1371078491211,49.26973993451215,0.0,28.981764834976765
1557947317947,-1.5828085327148438,-1.193255015250838,0.8744935808660684,0.00239501953125,9.408534851074219,997.7433013916016,86.11066436767578,49.664238537258235,0.0,30.224283711854866
1557947318011,-1.3883628845214844,-1.238697986012005,0.28024018447446114,0.030087432861328128,9.19013900756836,997.7433013916016,83.37482452392578,49.664257885795145,0.0,28.62727528317975
1557947318078,-1.0437794494628907,-1.2856190333994977,0.5652549645239153,0.7740403747558594,7.320377197265626,997.7433013916016,82.36267852783203,49.664281289991706,0.0,28.432327780980096
1557947318148,-0.6345304870605469,-1.3096645073661484,0.19712367815227316,0.019609222412109377,8.023165740966798,997.7433013916016,80.9888687133789,49.66430012141061,0.0,25.865873046717546
1557947318211,-1.4542259216308595,-1.321839221312251,0.21219181625298164,0.5475613403320313,7.673193511962891,997.7433013916016,79.94175720214844,49.66432737669381,0.0,25.118833609788744
1557947318278,-1.8913169860839845,-1.3341175510906875,0.38823329266041245,-0.2582130432128906,8.991651763916016,997.7433013916016,78.53253173828125,49.66434424521664,0.0,28.06179973983887
1557947318347,-1.539847869873047,-1.34650127554652,0.1334595056210971,0.41433837890625,8.675958251953125,997.7433013916016,75.71504211425781,49.66435987903098,0.0,29.263424466256552
1557947318413,-3.7248541259765626,-1.3589922197297168,0.8350337366018101,0.63468017578125,11.222762145996095,997.7433013916016,74.2330322265625,49.66438273447456,0.0,31.646502159342965
1557947318478,-4.71624252319336,-1.3715922565093503,0.5185982143925881,-0.23381378173828127,11.754606170654297,997.7433013916016,72.81507110595703,49.664409834818315,0.0,26.812412373755873
1557947318546,-6.230643310546875,-1.3715922565093503,0.4399651559625197,0.7873626708984376,12.315938873291016,997.7433013916016,72.81507110595703,49.66440963628051,0.0,27.944880466591698
1557947318612,-5.066963195800781,-1.34650127554652,0.6259458269588523,1.4431489562988282,9.783056030273437,997.7433013916016,72.81507110595703,49.664408023882444,0.0,28.175653695597806
1557947318678,-3.649860076904297,-1.34650127554652,0.8130929093163521,0.9443861389160156,7.481741638183594,997.7433013916016,72.81507110595703,49.66441059838125,0.0,28.142475957319203
1557947318747,-3.060685272216797,-1.3341175510906875,0.39026595664732877,1.0585986328125,6.972051544189453,997.7433013916016,72.81507110595703,49.66440788181839,0.0,28.750612633917
1557947318811,-2.8732749938964846,-1.3341175510906875,0.2089855182633385,0.3641926574707031,7.502548370361328,997.7433013916016,72.81507110595703,49.66440662106405,0.0,28.102325179950842
1557947318878,-3.7067417907714844,-1.2975916750655736,0.3381758079831294,1.9583775329589845,7.634723510742188,997.7522277832031,74.45764923095703,49.66440647972733,0.0,31.26780577012009
1557947318947,-4.280498657226563,-1.2856190333994977,0.349109337553057,0.9589059448242188,8.727451171875,997.7522277832031,75.75321960449219,49.66440944136316,0.0,31.832698436828046
1557947319011,-3.6190242004394535,-1.2619677653348522,0.17713196320419408,1.4413526916503907,8.462352447509765,997.7522277832031,77.1297836303711,48.01395747242726,0.0,31.775364999298624
1557947319078,-4.005520477294922,-1.2619677653348522,0.7598616302009844,-0.6149212646484375,10.810070343017578,997.7522277832031,77.1297836303711,48.01396570763121,0.0,28.64511081058392
1557947319147,-5.466781768798828,-1.2619677653348522,0.7260827082619438,-0.05837860107421875,12.441677398681641,997.7522277832031,78.38960266113281,48.01396304339792,0.0,30.289777052087782
1557947319211,-4.2291554260253905,-1.238697986012005,0.3151496831300555,0.028889923095703127,11.498339080810547,997.7522277832031,78.38960266113281,48.01396464652159,0.0,29.62842681201242
1557947319278,-3.517984313964844,-1.2272023471741758,0.53085945669916,0.5587879943847657,9.459728393554688,997.7522277832031,78.38960266113281,48.01396780804838,0.0,31.293675957229855
1557947319346,-1.3654605102539064,-1.204482270674092,1.0582935498162809,0.9096583557128907,6.566544799804688,997.7522277832031,78.38960266113281,48.01396722494489,0.0,30.0774777800074
1557947319411,-3.208128662109375,-1.1821144576456375,0.3290255436033347,0.678838348388672,7.880811767578125,997.7522277832031,79.39786529541016,48.0139640469889,0.0,28.567288903828825
1557947319480,-3.8983433532714846,-1.1710592691366417,0.30313850870872955,0.00449066162109375,7.7336677551269535,997.7522277832031,79.39786529541016,48.01396486175889,0.0,28.175653695597806
1557947319548,-2.6458978271484375,-1.1821144576456375,0.3713316912902725,1.1347901916503906,7.209906921386719,997.7522277832031,79.39786529541016,48.01396635994658,0.0,29.590413923210935
1557947319611,-3.37937255859375,-1.193255015250838,0.5939783542908577,0.6515950012207031,9.440568237304689,997.7522277832031,76.54478454589844,48.01396782048095,0.0,29.395192526186186
1557947319678,-3.2168106079101566,-1.193255015250838,0.31393139065026476,1.0871891784667969,9.842183074951173,997.7522277832031,76.54478454589844,48.01396792167782,0.0,32.05204363948145
1557947319747,-5.527555389404297,-1.1064501877135653,0.6492916836945529,0.16420852661132812,10.688223724365235,997.7522277832031,75.25110626220703,48.01396507103243,0.0,27.715874808812554
1557947319811,-7.856861572265625,-1.0245731806591578,0.8663891661922265,0.7420069885253907,12.2864501953125,997.7522277832031,75.25110626220703,48.013966431074806,0.0,28.750612633917
1557947319878,-5.297184448242188,-0.9756635801782111,0.8248443267045538,0.829874267578125,9.085057525634767,997.7655029296875,74.21925354003906,48.01396627012691,0.0,29.185545305502735
1557947319947,-4.069287872314454,-0.9853137502119306,0.623634223330458,0.5563929748535157,7.387886810302735,997.7655029296875,74.21925354003906,48.01396500847909,0.0,28.135809885681915
1557947320012,-3.44643310546875,-0.9853137502119306,0.5013751402400801,1.653461608886719,6.89571029663086,997.7655029296875,74.21925354003906,50.40029354938952,0.0,28.33147111912785
1557947320078,-3.574117584228516,-1.0048099258377277,0.38249563097453715,0.05194198608398438,7.237150268554688,997.7655029296875,74.21925354003906,50.40030006987971,0.0,28.129133566428557
1557947320147,-3.5917808532714846,-1.0245731806591578,0.12877412748957426,-0.113763427734375,6.412664794921875,997.7655029296875,75.60248565673828,50.400324296516615,0.0,27.9309160017658
1557947320211,-3.817511444091797,-1.0245731806591578,0.7839715304554934,0.38934036254882814,10.207872619628906,997.7655029296875,79.1837158203125,50.40032403327038,0.0,28.37588438235511
1557947320278,-5.174439697265625,-1.03455726923178,1.2080086998662687,-1.7540524291992188,13.384716339111328,997.7655029296875,80.22537231445312,50.40032214038953,0.0,27.730546933642625
1557947320347,-4.637955322265626,-1.0245731806591578,0.19326440548239374,-0.7337741088867188,12.73955795288086,997.7655029296875,81.49600219726562,50.40032325490766,0.0,32.20369632451395
1557947320411,-3.201991424560547,-1.014657711794075,0.8854756210054286,0.10508148193359376,9.400601348876954,997.7655029296875,81.49600219726562,50.400327212186184,0.0,27.435097647284298
1557947320478,-3.284619598388672,-0.9950289050451423,0.6601005397145608,0.6354286193847657,7.817942504882813,997.7655029296875,82.70357513427734,50.400324172883685,0.0,31.287222843384267
1557947320547,-2.552941131591797,-0.9853137502119306,0.3878218541011722,0.30985565185546876,7.137008514404298,997.7655029296875,82.70357513427734,50.40032295905156,0.0,26.830470382388498
1557947320611,-2.9668304443359377,-0.9756635801782111,0.27764117407003247,-0.6508465576171876,7.936645660400391,997.7655029296875,82.70357513427734,50.40032345735596,0.0,26.5991620006985
1557947320679,-3.051404571533203,-0.9853137502119306,0.1993591558762749,-0.15148498535156252,6.632707214355469,997.7655029296875,81.14593505859375,50.400324946988846,0.0,28.66287339084195
1557947320747,-3.423830108642578,-0.9853137502119306,0.4051705165460539,-0.53887939453125,8.68673583984375,997.7655029296875,80.12554931640625,50.40032435533163,0.0,28.37588438235511
1557947320811,-3.7483552551269534,-0.9756635801782111,0.36882622131349746,0.2848576354980469,9.611512756347656,997.7655029296875,78.95287322998047,50.4003269266968,0.0,26.30427875025024
1557947320878,-4.910239105224609,-0.9660775313490131,0.4900942617050324,-0.4345463562011719,10.707383880615234,997.7867126464844,77.83904266357422,50.400324444313426,0.0,27.56636108245848
1557947320948,-6.733747100830079,-0.9565547572305065,0.6353138212800259,-0.4237687683105469,11.490106201171876,997.7867126464844,76.26978302001953,50.40032417321158,0.0,27.18501688867274
1557947321011,-7.546407165527344,-0.9660775313490131,0.5197300785758687,1.148411865234375,11.022179260253907,997.7867126464844,76.26978302001953,50.40032737608145,0.0,27.92391689498254
1557947321077,-3.7928128051757812,-0.9565547572305065,1.3659519468098464,0.8280780029296876,6.848708038330079,997.7867126464844,76.26978302001953,50.19157804471447,0.0,24.927603890268376
1557947321148,-4.1433837890625,-0.9565547572305065,0.45961890781436987,0.6923103332519531,6.487958221435547,997.7867126464844,74.3428726196289,50.191593304277134,0.0,25.526682161121933
1557947321211,-3.244802398681641,-0.9660775313490131,0.4084868621858274,1.218915252685547,5.419480133056641,997.7867126464844,72.90354919433594,50.191617341521145,0.0,27.442929831226763
1557947321278,-3.992198181152344,-0.9660775313490131,0.5924383388501689,-0.09714797973632813,7.700885925292969,997.7867126464844,72.90354919433594,50.19162961065949,0.0,27.18501688867274
1557947321348,-4.188889160156251,-0.9660775313490131,0.5318185546888395,-0.082628173828125,7.135960693359375,997.7867126464844,72.90354919433594,50.19165598015438,0.0,28.615344108590378
1557947321411,-5.253774719238281,-0.9565547572305065,1.2148565746564863,-1.1720626831054688,13.309123535156251,997.7867126464844,72.90354919433594,50.1916695408371,0.0,27.641761323903307
1557947321478,-4.454586639404297,-0.9660775313490131,0.4289745082186303,0.015567626953125,13.396541748046875,997.7867126464844,73.02948760986328,50.19167699748179,0.0,28.90979596989689
1557947321548,-4.369264068603516,-0.9565547572305065,0.5440696432355306,1.0582992553710937,11.260184326171876,997.7867126464844,73.02948760986328,50.19168250986832,0.0,27.846172926328755
1557947321611,-1.8119819641113282,-0.9565547572305065,1.523319145585374,1.2756472778320314,6.428082733154297,997.7867126464844,70.92984771728516,50.19167750235448,0.0,30.655797147284485
1557947321678,-2.1610560607910156,-0.9470944279814404,0.34936557077506986,-0.0197589111328125,7.03222640991211,997.7867126464844,70.92984771728516,50.19167960835344,0.0,30.199466816788423
1557947321747,-1.3933026123046877,-0.9470944279814404,0.5517427382993063,0.8666976928710938,5.402714996337891,997.7867126464844,69.58262634277344,50.19167733842977,0.0,26.570558528571038
1557947321811,-2.195933532714844,-0.9376957299791908,0.7391222344014524,-0.113763427734375,8.534203033447266,997.7867126464844,67.16056823730469,50.191680603817204,0.0,30.370278797557752
1557947321878,-2.325114898681641,-0.8735653925594751,0.6760672991315136,0.5909710693359376,10.48389862060547,997.8144073486328,62.96821975708008,50.191679213261686,0.0,31.62564406523019
1557947321947,-5.775140533447266,-0.7866297557881944,1.4476401714600289,-0.7041357421875001,14.328503723144532,997.8144073486328,60.02894592285156,50.191678162692966,0.0,30.81707270097349
1557947322011,-5.385650482177734,-0.7046363835908867,0.46117718489089016,1.1401789855957032,12.279564514160157,997.8144073486328,59.98828887939453,50.16217402920336,0.0,28.182258936139554
1557947322078,-5.970334625244141,-0.6045694284869644,0.3326355434711938,0.7300318908691407,11.390263824462892,997.8144073486328,58.163055419921875,50.16217993509568,0.0,26.532125137753436
1557947322149,-4.147275695800781,-0.5188388314531364,1.2965751370448146,0.9174421691894532,6.7545538330078125,997.8144073486328,56.87600326538086,50.162211937823415,0.0,27.752462597402364
1557947322211,-4.001478881835938,-0.47674072218986857,0.5469764453783558,-0.16839981079101562,6.141428833007812,997.8144073486328,51.726524353027344,50.162233227355976,0.0,24.60897842756548
1557947322278,-3.629352722167969,-0.49098612713706047,0.14889369624789495,0.22273681640625,6.877897338867188,997.8144073486328,50.4971809387207,50.16224512456493,0.0,24.727564493172125
1557947322348,-3.5093023681640627,-0.4712188323469355,0.42787115264610665,0.9421408081054689,7.868986358642578,997.8144073486328,48.414241790771484,50.16227485488123,0.0,26.711728427150835
1557947322411,-4.336781616210938,-0.4795000647363547,0.7339248067772428,0.724493408203125,10.843899993896486,997.8144073486328,46.32944869995117,50.1622825925011,0.0,26.294095991027188
1557947322478,-4.27031982421875,-0.4642521568107464,0.3284297368740561,1.127904510498047,11.371852111816407,997.8144073486328,41.97584533691406,50.162311490266625,0.0,27.16003343634799
1557947322548,-5.666466522216798,-0.48444088419815784,0.8286237047810203,-1.96152099609375,12.178075561523437,997.8144073486328,40.10406494140625,50.16232576706147,0.0,27.61927838420529
1557947322612,-3.8311331176757815,-0.5170455496300854,0.8824284382404352,-0.6147715759277345,8.08363998413086,997.8144073486328,36.79829788208008,50.16234307706693,0.0,26.414741105040992
1557947322678,-5.214855651855469,-0.6463285665750518,0.3593834596396986,-1.440604248046875,9.633516998291016,997.8144073486328,32.30686950683594,50.16236301673684,0.0,27.730546933642625
1557947322747,-4.293072509765625,-0.7203291480188289,0.09793870401626202,-1.3997392272949218,9.335935821533203,997.8144073486328,28.931869506835938,50.16239028589634,0.0,28.175653695597806
1557947322811,-2.9187803649902344,-0.8807938202120749,0.6328084277350378,0.22782623291015627,9.207353210449218,997.8144073486328,25.060522079467773,50.16240759998346,0.0,25.865873046717546
1557947322878,-2.5471032714843753,-0.9682566614624142,0.24778227981770665,0.326920166015625,9.17247573852539,997.8479766845703,20.63153076171875,50.162421773715685,0.0,27.730546933642625
1557947322948,-1.7137861633300782,-1.0024723768003274,0.4240415861597543,0.37511993408203126,7.726183319091797,997.8479766845703,15.712026596069336,50.16244878399206,0.0,26.344772701607315
1557947323011,-2.837649078369141,-1.014060351075539,0.365162896995515,0.629740447998047,9.335935821533203,997.8479766845703,10.238941192626953,50.162456142591296,0.0,26.55138434811382
1557947323078,-2.8922854614257814,-1.037519323899528,0.3107075823145416,0.1095721435546875,10.179431762695312,997.8479766845703,3.4101133346557617,50.16247504642577,0.0,24.84299839346786
1557947323148,-2.395767974853516,-1.1353666472976727,0.3650465681016236,1.2247531127929687,10.563233642578126,997.8479766845703,357.7539978027344,50.16249732252388,0.0,26.748611407378114
1557947323212,-2.236499176025391,-1.1738407951123082,0.48008873158466564,1.495540008544922,8.795858917236329,997.8479766845703,353.54046630859375,50.16250355311178,0.0,28.46955325019824
1557947323278,-2.0984861755371096,-1.3100451787106195,0.6566654913601451,2.14833251953125,6.754254455566406,997.8479766845703,347.7594909667969,50.162511949755725,0.0,25.865873046717546
1557947323347,-4.196822662353516,-1.3100451787106195,0.8260980128846765,1.0057585144042969,7.31004867553711,997.8479766845703,345.62548828125,41.88077874829996,0.0,25.899496013257078
1557947323412,-5.290298767089844,-1.2958313194909188,0.8591077028885831,-0.25147705078125,10.457254028320312,997.8479766845703,339.8697814941406,41.88078474799486,0.0,26.283889300503116
1557947323478,-4.8210246276855475,-1.240336206899215,0.2073729560103785,0.6976991271972657,9.674082641601563,997.8479766845703,329.93438720703125,41.88080322014544,0.0,26.24282095835668
1557947323547,-4.9105384826660154,-1.186896947937755,0.4670999808262618,0.5303471374511719,7.807015228271485,997.8479766845703,322.718994140625,41.88081519211407,0.0,27.267272090265724
1557947323612,-4.007765808105469,-1.1353666472976727,0.47007335232483155,1.254840545654297,6.788383483886719,997.8479766845703,313.70562744140625,41.88083681267038,0.0,24.84299839346786
1557947323679,-4.093986511230469,-1.0869880001638277,0.23051898471214713,1.4227912902832032,7.794591064453125,997.8479766845703,308.99822998046875,41.88084784133852,0.0,25.943925503754265
1557947323747,-6.544540557861328,-0.9243786197488447,0.7018241904353144,0.3758683776855469,9.942025451660157,997.8479766845703,304.5462341308594,41.88086613334697,0.0,29.50364854376123
1557947323811,-5.485642547607422,-0.8096429406644802,0.5579560096346466,-0.6483018493652344,10.906469879150391,997.8479766845703,292.635986328125,41.88088309428588,0.0,28.506462351830667
1557947323878,-3.6278558349609376,-0.7912644113496256,0.7625356043711712,0.24189697265625001,8.150401153564454,997.8825378417969,290.14385986328125,41.88090814599135,0.0,27.16003343634799
1557947323947,-7.226222991943359,-0.782162204242373,0.957298457398487,-2.0290306091308596,9.186097412109376,997.8825378417969,288.8334045410156,41.88091881940582,0.0,25.06505032404872
1557947324011,-4.863536224365235,-0.782162204242373,0.5069275982152027,-2.018702087402344,8.60096420288086,997.8825378417969,287.53961181640625,41.88093541606735,0.0,25.888317255942074
1557947324078,-7.5012011718750005,-0.782162204242373,0.5693713448130645,-1.4959890747070312,8.261470184326173,997.8825378417969,287.53961181640625,41.8809487758657,0.0,25.14547752660286
1557947324148,-6.189329223632813,-0.782162204242373,0.959196092740939,-1.0702743530273438,4.670437774658203,997.8825378417969,289.19097900390625,41.88097274288131,0.0,25.899496013257078
1557947324212,-6.259084167480469,-0.782162204242373,0.6356232280085021,-1.0612930297851564,7.989336090087891,997.8825378417969,294.6302490234375,41.88098836556527,0.0,27.512791039833424
1557947324278,-9.517957305908203,-0.782162204242373,0.9064285450539835,-0.5111869812011719,5.814358978271485,997.8825378417969,296.3967590332031,41.88100328058256,0.0,26.963563887333322
1557947324348,-4.8526089477539065,-0.8004244106351015,1.0138146333910962,-1.7940193176269532,5.680836639404297,997.8825378417969,296.3967590332031,41.8810295500381,0.0,26.58964842664435
1557947324413,-5.362897796630859,-0.8004244106351015,0.13006355619627816,-1.3572276306152344,5.819598083496094,997.8825378417969,306.622314453125,41.881037094784894,0.0,23.961993470957363
1557947324481,-5.828579406738282,-0.8471176460831429,0.2103103225513068,-1.8827847290039064,6.462361450195313,997.8825378417969,311.6385498046875,41.881054601848774,0.0,25.41579243946581
1557947324547,-6.947801971435547,-1.2124021101648874,0.8028874571545799,1.6745677185058594,6.4957420349121096,997.8825378417969,316.18756103515625,41.88107457414459,0.0,26.55138434811382
1557947324612,-9.384884033203125,-1.8271200834447272,0.9913353804855104,3.0502070617675785,7.755073242187501,997.8825378417969,316.18756103515625,41.881093868281134,0.0,26.0959440922522
1557947324678,-10.894045715332032,-2.7744551597066174,1.007020856374301,3.7592825317382816,4.659959564208985,997.8825378417969,318.2132873535156,41.88111314357963,0.0,26.866362692622936
1557947324748,-10.20562728881836,-3.359015515466037,0.7195461424485304,1.8865269470214845,7.372917938232423,997.8825378417969,320.8241882324219,41.8811126040669,0.0,24.913616938342727
1557947324811,-13.580808563232422,-3.497773388523863,1.235749619701361,2.8372000122070316,9.485774230957032,997.8825378417969,303.5727844238281,41.88111399298184,0.0,23.979400086720375
1557947324878,-11.098670196533204,-3.318803247478544,0.8761724594054979,-0.21869522094726562,10.025402069091797,997.9152679443359,303.5727844238281,41.881113232412154,0.0,25.024271199844325
1557947324947,-6.625671844482422,-3.271497532700187,1.642973107594253,-0.5463638305664062,5.4031640625,997.9152679443359,313.9876403808594,41.881112504751904,0.0,26.541765418779605
1557947325011,-1.9408639526367188,-3.1812997237286087,2.1874969913635907,-2.0239411926269533,0.25581802368164064,997.9152679443359,323.2552795410156,41.881110954812634,0.0,24.36162647040756
1557947325078,-4.700225830078125,-3.2033260300586077,1.4238932603380492,-0.149688720703125,-3.5459761047363285,997.9152679443359,343.0127258300781,41.881114510566064,0.0,30.02166061756508
1557947325148,-10.388546905517579,-7.225693843087062,0.9599618303855303,-1.9678079223632814,-0.3591032409667969,997.9152679443359,41.61518096923828,41.88111312751407,0.0,31.254812657005942
1557947325329,-4.007765808105469,-7.225693843087062,1.2812190447012657,-5.659431152343751,-1.0780581665039064,997.9152679443359,15.88906192779541,41.88111660888297,0.0,30.565237240791006
1557947325356,-7.040159912109376,-7.225693843087062,0.7366768873536121,-3.404520263671875,-2.3572979736328126,997.9152679443359,12.276938438415527,41.8811169490226,0.0,28.779469516291883
1557947325413,-17.890047454833987,-7.225693843087062,2.8993446732496486,-7.0310289001464845,-3.082090759277344,997.9152679443359,6.166517734527588,41.88111362070031,0.0,31.911714557285585
1557947325481,-13.616284790039064,-7.225693843087062,0.6767907453008913,-6.647526397705079,-1.3015434265136718,997.9152679443359,3.4976420402526855,41.881114969331776,0.0,33.38456493604605
1557947325546,-10.21086639404297,-6.418338921029458,1.2581043804040344,-3.0000613403320315,-0.2839595031738281,997.9152679443359,22.265911102294922,41.881115107387835,0.0,41.080235093460885
1557947325611,-11.54159912109375,-6.9037657481996995,0.8311697690397928,-7.104675750732422,-0.9981243896484375,997.9152679443359,11.704116821289062,41.881114198520784,,42.36587640756995
1557947325678,-3.783532104492188,-7.225693843087062,2.0633115989552735,-3.723057861328125,-3.4826577758789066,997.9152679443359,358.6285705566406,41.88111378098967,121.36889880952381,41.55062619223921
1557947325750,-6.195765838623047,-7.225693843087062,0.3804339776903855,-1.603315887451172,-1.2040960693359375,997.9152679443359,354.52105712890625,41.88111335812109,121.36889880952381,43.70216920815891
1557947325811,-8.957373046875,-7.225693843087062,1.2194798273717224,-0.25417144775390627,0.35745666503906254,997.9152679443359,350.19061279296875,41.881111722755406,,43.30494942302217
1557947325878,-11.797267456054689,-7.225693843087062,1.6625483414571174,-5.198689270019531,-2.1640498352050783,997.9463958740234,1.96282958984375,41.881114155543536,33.6962890625,42.549345890774404
1557947325947,-7.5769436645507815,-7.225693843087062,1.6329838640630043,-2.824476470947266,1.9513421630859376,997.9463958740234,8.142078399658203,41.881114759641946,0.0,36.01842789782098
1557947326012,-5.487289123535157,-7.225693843087062,1.03049511686146,-5.0358279418945315,3.3913476562500002,997.9463958740234,12.69302749633789,41.88111250545997,0.0,39.65671971220107
1557947326077,-11.854149169921875,-7.225693843087062,2.6338983474721993,-12.163705444335939,-1.803300018310547,997.9463958740234,10.402610778808594,41.88111350545088,,37.78006461423508
1557947326146,-11.35089569091797,-7.225693843087062,0.5259870296378942,-8.47447723388672,-1.2772938537597658,997.9463958740234,7.32790470123291,41.88111381191406,195.283203125,32.41795431295199
1557947326211,-7.663763122558594,-7.225693843087062,1.3764758834750097,-4.973856811523437,0.1327738952636719,997.9463958740234,5.5804057121276855,41.88111336589229,0.0,29.772662124272927
1557947326279,-5.0966015625,-7.225693843087062,0.865505233568411,-5.638175354003907,0.631087646484375,997.9463958740234,3.6401453018188477,41.88111381795564,0.0,27.18501688867274
1557947326346,-6.035000152587891,-7.225693843087062,0.8294539033783455,-2.8566595458984376,-1.3130694580078126,997.9463958740234,359.6369934082031,41.881114084811394,0.0,35.49371152333177
1557947326413,-7.229815521240234,-7.225693843087062,0.34667297293882643,-3.620970153808594,-1.5608042907714845,997.9463958740234,359.6369934082031,41.88111057515257,,32.54306332331286
1557947326482,-5.151537322998047,-7.225693843087062,0.5600668038246356,-4.522096252441407,-0.3764671325683594,997.9463958740234,357.9814453125,41.88111366004906,,27.543483357110187
1557947326548,-6.795867919921875,-7.225693843087062,0.4841729201319198,-5.3123030090332035,0.4968168640136719,997.9463958740234,359.9792175292969,41.88111485556098,0.0,39.93788813818705
1557947326611,-10.571316833496095,-7.225693843087062,1.81735762327127,-11.07696533203125,0.17019607543945314,997.9463958740234,357.517333984375,41.881113661253686,,44.215710245264006
1557947326678,-11.880494384765626,-7.225693843087062,1.5897610964553182,-4.910388793945312,4.303999786376953,997.9463958740234,356.35638427734375,41.88111412574768,36.4990234375,48.47041804641579
1557947326746,-15.173496551513672,-6.05576884164475,1.0024695125170118,-3.878434753417969,3.772754516601563,997.9463958740234,355.17291259765625,41.88111342679237,36.4990234375,40.06466042249231
1557947326811,-14.950460357666016,-7.225693843087062,1.2565286684707584,-2.532284088134766,-0.6539900207519531,997.9463958740234,358.6750793457031,41.881113328554655,26.9482421875,41.758595735437034
1557947326878,-7.083120574951172,-7.225693843087062,2.037713824305995,-5.888754272460938,1.6304095458984376,997.9756164550781,1.5727143287658691,41.8811119684233,,50.410648665383874
1557947326947,-7.189249877929688,-7.225693843087062,0.4498973254576757,-5.4055590820312505,1.4067745971679688,997.9756164550781,358.65643310546875,41.88111668448559,,36.91435152144062
1557947327012,-7.504943389892579,-7.225693843087062,0.7847995325464621,-6.126310272216797,-1.652413787841797,997.9756164550781,354.400390625,41.8811140334455,46.298828125,29.97386384397313
1557947327078,-8.646170196533204,-7.225693843087062,0.9798818607376345,-3.2145652770996094,1.7045054626464844,997.9756164550781,347.25054931640625,50.004007581286,0.0,29.590413923210935
1557947327147,-6.0870918273925785,-7.225693843087062,1.2290142277772007,-8.114326171875,2.127825164794922,997.9756164550781,350.8510437011719,50.004026508750684,,34.673120629805524
1557947327211,-7.928861846923828,-5.9037657481996995,0.32466956463459384,-7.32202377319336,1.8227595520019533,997.9756164550781,343.9576721191406,50.00405167726713,,32.260841159758236
1557947327278,-9.795330505371094,-2.330876079779119,1.0493430284529792,-3.689078521728516,2.180515594482422,997.9756164550781,334.35040283203125,50.00407099417612,70.9130859375,30.659529803138696
1557947327347,-8.168513488769532,-1.8753840685573984,1.6141313776582593,-2.1320164489746096,7.859256591796876,997.9756164550781,329.2793884277344,50.00408520462701,0.0,27.209857441537388
1557947327414,-9.60597427368164,-1.7215414818069439,1.6651623742040578,4.215833129882813,5.822142791748047,997.9756164550781,323.46990966796875,50.0041172066323,0.0,26.03144372620182
1557947327483,-4.253704376220703,-0.788892225400174,1.8467264252232767,-1.7555493164062501,8.723259887695313,997.9756164550781,303.3347473144531,50.004132154485085,0.0,27.193312869837264
1557947327550,-3.757486267089844,-0.6881710975385477,0.7431081438826699,-2.886896667480469,8.81651596069336,997.9756164550781,292.1922912597656,50.004151820852215,0.0,31.532049000842846
1557947327611,-1.5691868591308595,-0.7148596468004166,0.9293468898056627,-0.38455032348632817,6.88373519897461,997.9756164550781,280.5830078125,50.00416872697357,,38.74075745223035
1557947327677,-3.1008018493652347,-0.6739855814663736,0.7058433482605984,2.0353175354003907,7.821385345458984,997.9756164550781,271.4916076660156,50.00418371272615,,38.40858554041879
1557947327749,-2.1824615478515628,-0.7229524306146514,1.012240054460974,2.3575973510742188,11.323951721191406,997.9756164550781,262.13848876953125,50.00421273049883,251.01359049479166,39.683895418470684
1557947327811,-1.6413368225097658,-0.7517362263160139,1.1479968979198683,1.391356658935547,14.894776153564454,997.9756164550781,257.88995361328125,50.00423355262226,152.58076985677084,36.68479102932586
1557947327878,-1.6366964721679689,-0.6836084174517206,0.3931160322822804,0.6237528991699219,12.814402313232423,998.0014801025391,256.0269775390625,50.00425175687895,152.58076985677084,34.13802516769351
1557947327949,-1.2317884826660157,-0.6919422084413624,1.1317130532119448,2.082319793701172,8.707243194580078,998.0014801025391,256.0269775390625,50.00426180868632,,33.05566313515304
1557947328011,-0.439486083984375,-0.7454007534252571,0.8914556569843759,3.2221994018554687,6.638096008300781,998.0014801025391,260.4515075683594,50.00428783905965,490.96923828125,31.122697684172707
1557947328078,-0.6700067138671876,-0.836185953895126,0.27594316635119487,1.7711169433593752,7.451205139160157,998.0014801025391,260.4515075683594,50.0043103785462,0.0,29.400181550076635
1557947328146,0.319735107421875,-0.8534639453269615,0.7290210350878079,2.6432034301757814,4.908143463134766,998.0014801025391,259.1302795410156,50.00431048511746,0.0,27.101173651118163
1557947328212,1.0455757141113282,-0.8621811624280704,0.68896685902832,5.21919662475586,6.727909240722656,998.0014801025391,257.1646423339844,50.00431022672156,0.0,27.87460474518415
1557947328278,-1.6783099365234375,-0.836185953895126,0.6176508823401617,4.587360534667969,7.305408325195313,998.0014801025391,253.23800659179688,50.004307975995886,,33.21805483857539
1557947328348,-1.9082318115234376,-0.7608978265908887,1.0953409321280239,1.482217712402344,10.149494018554687,998.0014801025391,249.63954162597656,50.004306968756225,,36.27570664180543
1557947328415,-3.6021093750000004,-0.6211730629242755,1.5884841277902817,3.088078308105469,15.389347686767579,998.0014801025391,245.32557678222656,50.00430864175353,56.0205078125,26.232492903979004
1557947328486,-3.723057861328125,-0.47324431696461866,0.8173125243681479,4.738246765136719,11.267668762207032,998.0014801025391,243.70639038085938,50.004306504340235,0.0,27.18501688867274
1557947328550,-1.209335174560547,-0.5605875890158287,1.5774134841314702,2.361189880371094,6.394253082275391,998.0014801025391,245.0494842529297,50.004308790214694,0.0,24.712917110589387
1557947328611,-1.8206639099121094,-0.591116417868934,0.4115816675087406,2.74708740234375,6.132746887207031,998.0014801025391,246.46263122558594,50.0043058026773,0.0,24.69822015978163
1557947328678,-0.4788542175292969,-0.6655412589954885,0.3505426497517255,2.711910552978516,6.12451400756836,998.0014801025391,247.55479431152344,50.00430880848,0.0,26.875289612146346
1557947328746,-0.34218841552734375,-0.6570796802472927,0.5144688415643613,3.416495361328125,8.10998519897461,998.0014801025391,245.60446166992188,50.00430842782509,0.0,27.3559889969818
1557947328811,-0.30416748046875003,-0.6486674404310926,0.7479545710616698,3.2195050048828127,10.623258819580078,998.0014801025391,244.53138732910156,50.004307254068365,0.0,26.25312450961674
1557947328878,-1.1220666503906251,-0.5671375549344941,1.1029147586491577,4.922363891601563,14.093342742919923,998.0222320556641,241.9811553955078,50.004308725213434,0.0,28.709888137605756
1557947328945,-1.9610719299316408,-0.5435507346168782,0.6642434943858381,2.202070770263672,14.399605865478517,998.0222320556641,239.17733764648438,44.5661989595143,0.0,26.82145076373832
1557947329011,-0.37511993408203126,-0.4602223510179822,1.8475648536938578,3.1317874145507814,6.218668212890625,998.0222320556641,238.04843139648438,44.566216536889414,0.0,26.37489729512511
1557947329079,0.5828878784179687,-0.5991987641667927,0.6757848465016002,4.111350402832032,5.91135726928711,998.0222320556641,238.04843139648438,44.56623165243886,0.0,25.599066250361126
1557947329149,-1.826052703857422,-0.16204285890322878,0.6183929429377635,3.632795562744141,7.753726043701172,998.0222320556641,238.04843139648438,44.566258532052956,0.0,24.653828514484182
1557947329212,-0.8601113891601563,-0.017874961259687176,0.4607157561217748,2.5700056457519533,9.819580078125,998.0222320556641,236.98643493652344,44.566274642191004,0.0,23.80211241711606
1557947329278,-1.249002685546875,0.03450901521264358,0.3935969186953066,3.510948944091797,6.958729248046875,998.0222320556641,235.40423583984375,44.56629391819602,0.0,27.347998295888473
1557947329349,-2.334844665527344,0.02616696757982752,0.5588813358164416,2.682421875,9.013656005859376,998.0222320556641,233.70578002929688,44.566312031733396,0.0,31.818435879447726
1557947329415,-2.032473449707031,-0.0057508166325571505,0.5841865036783365,3.2135174560546877,11.077713775634766,998.0222320556641,227.8026580810547,44.56632915484019,0.0,28.62727528317975
1557947329478,-1.0815010070800781,-0.02370044568444788,0.89244770457307,1.4458433532714845,13.504467315673828,998.0222320556641,222.22830200195312,44.56634922050386,0.0,24.593924877592308
1557947329549,-1.4382092285156252,0.2182434667287371,0.18815944176708713,1.362466735839844,12.205767974853517,998.0222320556641,218.64279174804688,43.01938246355591,0.0,32.47727832909723
1557947329612,-1.6621435546875,0.32153764868955975,0.31929149800031975,2.331401824951172,11.417656860351563,998.0222320556641,217.3347625732422,43.01939691687972,0.0,26.19093330626743
1557947329691,-0.9764195251464844,0.2521611607194033,0.9966946432794324,3.2838711547851562,7.958799591064453,998.0222320556641,215.86196899414062,43.01942083006701,0.0,23.424226808222063
1557947329752,-0.017064514160156252,0.2620878832644266,0.2632070232960299,2.40220458984375,8.777447204589844,998.0222320556641,213.85723876953125,43.019425498707186,0.0,25.854607295085007
1557947329811,-0.59156982421875,0.19497368740588997,0.3685882485277243,3.5283128356933595,7.75986328125,998.0222320556641,210.42298889160156,43.019446423842965,0.0,29.60470777534299
1557947329883,-0.17528549194335938,0.18766888678265684,0.46853448686054855,2.348466339111328,9.793384552001953,998.0397796630859,207.43092346191406,43.019459185600496,0.0,25.74031267727719
1557947329952,0.3629951477050781,0.25327232797055693,0.2668602690145907,3.406915283203125,9.958790588378907,998.0397796630859,204.59112548828125,43.01948389634465,0.0,27.084209001347126
1557947330014,-0.3040177917480469,0.08825147326170624,0.18000536806069073,2.8460316467285156,10.111323394775392,998.0397796630859,203.58734130859375,43.019503247839516,0.0,27.649229846498887
1557947330080,-1.1784992980957032,0.09633381955956472,0.5249186778171774,1.297950897216797,11.55207733154297,998.0397796630859,199.64547729492188,43.019522411659246,0.0,27.109631189952758
1557947330152,-1.8281483459472656,0.18237365062625616,0.33267397906561597,1.2181668090820312,10.96245346069336,998.0397796630859,198.11041259765625,43.01953990262128,0.0,24.548448600085102
1557947330237,-0.8126600646972657,0.28494338426680393,0.7464238727631002,1.9324813842773438,8.173303527832031,998.0397796630859,195.84121704101562,43.0195669879508,0.0,25.105450102066122
1557947330281,-1.1523037719726563,0.31987717437619134,0.19758368907637983,2.1318667602539065,8.103847961425782,998.0397796630859,190.71353149414062,43.01957276638266,0.0,25.327543789924974
1557947330353,-0.8743318176269532,0.326763559961431,0.18344490436920147,2.411485290527344,8.516390075683594,998.0397796630859,148.28538513183594,43.01959379000664,0.0,24.232458739368077
1557947330419,-1.7928218078613283,0.45172183039225233,0.3722736662463286,3.1823822021484376,9.22366928100586,998.0397796630859,136.29293823242188,43.01960737586042,0.0,27.299742856995554
1557947330483,-0.7692503356933594,0.5320086746834605,0.2788313980829511,3.6980598449707034,9.208550720214845,998.0397796630859,129.9347381591797,43.0196176127496,0.0,24.1161970596323
1557947330550,0.599802703857422,0.7267561502678709,0.6502261642219436,2.714904327392578,11.204949188232423,998.0397796630859,118.98585510253906,43.01963754012459,0.0,25.185139398778876
1557947330614,0.7866142272949219,0.8763406720801086,0.3798384797458042,3.200644226074219,9.37500457763672,998.0397796630859,115.26454162597656,43.01964916331082,0.0,24.14973347970818
1557947330680,-0.29832962036132815,0.9960148355312918,0.395290022992409,1.8383271789550781,9.712852020263673,998.0397796630859,110.24506378173828,43.019664522875544,0.0,24.424797690644485
1557947330751,-1.8913169860839845,1.1307661984558537,0.5886824443987939,3.3016841125488283,8.74616226196289,998.0397796630859,105.32577514648438,39.45584262524491,0.0,25.14547752660286
1557947330811,-2.6228457641601564,1.271626534719858,1.0331007513309307,0.37018020629882814,11.941717071533203,998.0397796630859,96.56349182128906,39.45585111785954,0.0,24.345689040341988
1557947330880,-2.5234524536132814,1.5224859005649543,1.0181146881395566,2.062860260009766,7.2634954833984375,998.0583953857422,92.22300720214844,39.455866315735086,0.0,27.307822756663892
1557947330952,-1.2034973144531251,1.5281898540433358,0.45776900118252567,1.8784437561035157,9.760303344726562,998.0583953857422,87.23699951171875,39.455879870676974,0.0,30.755469613925307
1557947331013,-1.0654843139648438,1.6100111866847338,0.40399812690771003,3.130440216064453,8.789272613525391,998.0583953857422,83.15208435058594,39.45589516977733,0.0,29.694159123539812
1557947331079,-0.9059161376953125,1.6908850003099176,0.23995748779010848,2.764750671386719,10.198591918945313,998.0583953857422,78.52632141113281,39.45592142651875,0.0,25.526682161121933
1557947331151,-0.9433383178710938,1.7128219922685088,0.2007882980370572,2.4189697265625,9.248667297363282,998.0583953857422,77.09700775146484,39.455935899441194,0.0,25.37819095073274
1557947331212,-1.5694862365722657,1.6875873571271518,0.4730568443819752,2.0736378479003905,7.6931021118164065,998.0583953857422,75.14725494384766,39.45594619848669,0.0,27.14329759745233
1557947331279,-1.665436706542969,1.6138623695642729,0.14465494171958967,2.5162673950195313,7.72678207397461,998.0583953857422,73.7332992553711,39.455960319911135,0.0,24.548448600085102
1557947331351,-1.6292120361328126,1.525862202622514,0.144552154356747,2.8684849548339844,7.447911987304688,998.0583953857422,72.6903076171875,39.4559720300125,0.0,23.404441148401183
1557947331416,-1.4642550659179687,1.433251052437639,0.31651797442748975,2.5837770080566407,8.786428527832031,998.0583953857422,72.6903076171875,39.45598534889151,0.0,23.50248018334163
1557947331479,-0.7212002563476563,1.3928367839917308,0.22302213501399265,2.948119354248047,8.191565551757813,998.0583953857422,71.55509185791016,39.45600122565665,0.0,28.959747323590644
1557947331551,-0.9246272277832032,1.325722588133194,0.40657522205087776,3.853436737060547,9.556277618408204,998.0583953857422,71.55509185791016,39.45600052456954,0.0,26.989700043360187
1557947331613,-1.2014016723632812,1.2188073842166818,1.9418064296027564,1.3936019897460938,16.67277877807617,998.0583953857422,71.55509185791016,39.45599734044993,0.0,26.693168805661124
1557947331678,-0.04685256958007813,1.107797578749337,0.6974186545690652,1.6724720764160157,12.257410583496094,998.0583953857422,71.55509185791016,39.45599813791516,0.0,30.969100130080562
1557947331750,-2.0013381958007814,1.1252915541236883,0.6265946397980837,1.4483880615234375,11.062445526123048,998.0583953857422,112.245849609375,39.45599927151256,0.0,25.477747053878225
1557947331811,-1.3566288757324219,1.0732313048010789,1.1939079002480997,2.1020787048339846,6.814579010009766,998.0583953857422,116.38314819335938,39.45600131009168,0.0,26.03144372620182
1557947331879,-0.6307882690429688,0.9643607592644732,0.208861996434015,1.9285894775390626,7.467221832275391,998.0821990966797,116.38314819335938,39.45600089876755,0.0,28.543060418010807
1557947331951,-0.8701405334472657,0.8156862130762479,0.12398610563301143,1.7994081115722658,8.06597671508789,998.0821990966797,114.91201782226562,39.45599900371129,0.0,23.961993470957363
1557947332012,-0.7002438354492188,0.7455261573412149,0.1946241369112486,2.352208557128906,7.4202195739746095,998.0821990966797,114.91201782226562,39.45599789618162,0.0,24.45604203273598
1557947332078,-0.27393035888671874,0.6797419000744448,0.16094886758774762,2.6279351806640627,7.414830780029297,998.0821990966797,114.91201782226562,39.455999898108196,0.0,25.728716022004804
1557947332151,-0.6843768310546875,0.6284173017819897,0.12491258302933131,2.7602600097656254,7.780819702148438,998.0821990966797,114.91201782226562,39.82528977378222,0.0,30.310042813635366
1557947332211,-0.8081694030761719,0.5890718489923705,0.7110344426372891,2.7701394653320315,10.536439361572267,998.0821990966797,116.60981750488281,39.825312575699606,0.0,36.67733052533267
1557947332278,-1.6708255004882813,0.6239311641244998,0.942349420719597,2.8117529296875,13.402229919433594,998.0821990966797,116.60981750488281,39.82532801837779,,31.082266563749283
1557947332351,-2.251168670654297,0.6742267469559311,0.2951050026127807,2.9237200927734377,13.28607147216797,998.0821990966797,113.73382568359375,39.82534072711601,0.0,26.39486489268586
1557947332412,-2.5818310546875,0.5368224764165123,0.4928910423502989,3.1156210327148437,12.26624221801758,998.0821990966797,112.61800384521484,39.82535327629589,0.0,25.58708570533166
1557947332478,-0.8503816223144531,0.45987083725687317,0.9851154294423039,2.9234207153320315,8.080646209716797,998.0821990966797,108.25731658935547,39.82536776584699,0.0,22.810333672477277
1557947332550,-1.102906494140625,0.36370489892415764,0.33577932053035836,2.7054739379882813,7.669750671386719,998.0821990966797,108.25731658935547,39.825364717093784,0.0,27.21810615212547
1557947332612,-0.7890092468261719,0.3694714186380264,0.41683003527933843,2.31837890625,6.416556701660157,998.0821990966797,110.73979187011719,40.241779296225786,0.0,25.888317255942074
1557947332678,-1.3979429626464845,0.3493018337971836,0.45734281757933765,2.3543041992187503,8.497678985595703,998.0821990966797,111.76898956298828,40.24178962677531,0.0,24.014005407815443
1557947332752,-0.41808059692382815,0.30096438309410384,0.4949099938955554,4.04803207397461,8.871152343750001,998.0821990966797,112.94225311279297,40.241812112648034,0.0,25.58708570533166
1557947332811,-0.9346563720703126,0.2626604949174642,1.2105967575161378,2.1751268005371096,13.276192016601563,998.0821990966797,112.94225311279297,40.24181961075356,0.0,28.29303772831025
1557947332878,-0.5782475280761719,0.19803999045367365,0.3652810741963879,3.6574942016601564,13.027259674072265,998.1090545654297,114.61738586425781,40.24183887097939,0.0,26.875289612146346
1557947332950,-0.5974076843261719,0.07429220498342658,0.5959361322503467,2.8181895446777343,10.4853955078125,998.1090545654297,115.73896789550781,40.24185289826071,0.0,37.94906106516804
1557947333012,0.2938389587402344,0.06453874732558842,0.976289398019136,3.679498443603516,7.334447937011719,998.1090545654297,118.78500366210938,40.24187333795811,,29.556877503135055
1557947333079,0.623902587890625,0.08427022299966992,0.3769026088975389,2.752925262451172,7.080875244140626,998.1090545654297,120.3431396484375,40.2418814122928,,26.30427875025024
1557947333153,0.09580078125000001,0.09217811804447394,0.1469844030757668,3.0927186584472657,6.9641180419921875,998.1090545654297,117.44222259521484,40.24189800967505,0.0,42.30959555748569
1557947333218,0.7454498291015625,0.15763753613291723,0.1675271920723603,2.864293670654297,6.739135894775391,998.1090545654297,116.18804168701172,40.24189727073971,,41.25351120514752
1557947333278,1.056353302001953,0.1248476010152476,0.23194130220307646,3.8214033508300784,7.415130157470704,998.1090545654297,116.18804168701172,40.24189753239004,,35.454308294653515
1557947333350,0.5721102905273437,0.14133572380381648,0.7100876476973791,4.17930908203125,9.974807281494142,998.1090545654297,114.14751434326172,40.24189891260709,317.75048828125,37.005306569785915
1557947333415,0.3745211791992188,0.1081688598686173,0.5286332093513729,3.70988525390625,11.377390594482423,998.1090545654297,113.09405517578125,40.241897291853455,,36.05951157564873
1557947333490,-0.30147308349609375,0.15763753613291723,0.5293559236504268,3.4693354797363285,12.819791107177736,998.1090545654297,111.04953002929688,40.24189846842767,629.334716796875,36.750447359558926
1557947333555,-0.4531077575683594,0.14133572380381648,0.6755843438406592,3.9151084899902346,9.660311279296875,998.1090545654297,107.0409927368164,40.241897443882344,629.334716796875,40.870712059065355
1557947333614,-1.4048286437988282,0.07422152794527946,0.4758290461760749,3.176694030761719,8.975934448242189,998.1090545654297,107.0409927368164,40.241897613198766,,37.650722011027916
1557947333678,-0.5426216125488281,0.07422152794527946,0.46287911767057327,3.16142578125,7.535779266357422,998.1090545654297,107.0409927368164,40.24189871793645,635.5419921875,31.007150865730818
1557947333750,-0.7071295166015625,0.09975662005241724,0.3237581862830033,2.991529083251953,6.788233795166016,998.1090545654297,107.0409927368164,40.24189883104187,0.0,31.711411510283817
1557947333812,-0.5212161254882812,0.09129504130422086,0.05358933402791462,3.0382319641113282,7.077432403564454,998.1090545654297,104.99578857421875,40.241897255838126,0.0,31.875207208364632
1557947333878,0.7072792053222656,0.1081688598686173,0.45052439465412597,3.832929382324219,8.086184692382814,998.1289672851562,104.99578857421875,40.24189818112493,0.0,32.19060332448861
1557947333950,1.1054512023925782,0.14133572380381648,1.3618215558395543,4.279301147460938,12.888348541259766,998.1289672851562,106.12223052978516,40.24189872136542,,29.907826918031375
1557947334012,1.028511199951172,0.11653233280324365,0.37367181786091225,4.670886840820312,12.639565887451173,998.1289672851562,106.12223052978516,40.24189794898881,,38.22233480238844
1557947334078,0.26884094238281253,0.1081688598686173,0.298011815968624,4.175417175292969,11.239227905273438,998.1289672851562,106.12223052978516,40.24189746449838,275.911865234375,34.676081055836335
1557947334153,0.011526031494140625,0.1081688598686173,1.0633407274302586,3.523223419189453,7.39866439819336,998.1289672851562,105.59010314941406,55.16828638995931,273.536376953125,33.82377303468114
1557947334213,-0.1694476318359375,0.13311521699884807,0.7759892332603961,4.528832244873047,5.457351379394532,998.1289672851562,103.37230682373047,55.16829543120522,,32.821687783046414
1557947334278,-0.6096821594238282,0.14133572380381648,0.7798674995074547,2.335742797851563,8.54498062133789,998.1289672851562,104.91207122802734,55.16831915367992,,31.64352855784437
1557947334350,0.839454345703125,0.22879856505415588,0.5733152239265806,3.649710388183594,6.2683648681640625,998.1289672851562,103.05167388916016,55.16831637160543,271.2744140625,34.42949869577862
1557947334416,0.5736071777343751,0.22106291627455063,0.2862081874255868,3.5771113586425782,7.826474761962891,998.1289672851562,99.28649139404297,55.168321436882515,265.23018430679565,42.631861574137055
1557947334477,0.7505392456054688,0.22106291627455063,0.3676240077777219,4.071383514404297,8.944948883056641,998.1289672851562,96.6876449584961,55.1683194743087,265.23018430679565,35.39452491549461
1557947334550,0.35835479736328124,0.251759713497467,0.7760177509445977,4.256249084472657,11.646381225585937,998.1289672851562,94.57139587402344,55.16832000656494,,37.28272597895017
1557947334612,-0.5243595886230469,0.28923441891612994,0.6029215712474305,4.3507026672363285,13.079800415039063,998.1289672851562,92.98015594482422,55.1683194541754,238.5040283203125,37.06717782336759
1557947334678,-1.0568023681640626,0.34724002235169554,0.2702173132151952,3.8347256469726565,11.902648315429689,998.1289672851562,91.56134796142578,59.818355596696904,232.77913411458331,34.12124406173317
1557947334751,-0.4267625427246094,0.3543294471380147,1.1906651622738602,3.545527038574219,7.32636474609375,998.1289672851562,90.04706573486328,59.81838547293291,232.77913411458331,34.16806871822944
1557947334811,0.46523254394531255,0.3401155879183141,0.569366412241384,3.2097752380371096,6.50247802734375,998.1289672851562,86.85282897949219,59.818408286064766,,31.798389280231866
1557947334878,-0.27797195434570315,0.3401155879183141,0.36401396925074675,2.448757781982422,8.139324188232422,998.1405639648438,87.94554901123047,59.81843211625729,0.0,28.621313793130373
1557947334952,0.7116201782226563,0.3613842046719653,0.580482044893924,2.8364515686035157,5.673052825927734,998.1405639648438,87.94554901123047,59.81845144685431,0.0,28.715729355458784
1557947335011,0.00868194580078125,0.3543294471380147,0.2755288884738581,2.804268493652344,7.1967343139648445,998.1405639648438,89.56404876708984,59.81847470728057,0.0,29.1539983521227
1557947335078,0.8090675354003907,0.3613842046719653,0.5824704766564195,4.164789276123047,8.110733642578126,998.1405639648438,93.739501953125,59.81850230282002,0.0,27.752462597402364
1557947335151,0.4240681457519532,0.38234382330761135,2.1540168934729933,3.533551940917969,16.88578582763672,998.1405639648438,96.35794830322266,59.81852297212147,0.0,24.871383754771866
1557947335211,-0.051043853759765626,0.40300329387370454,0.14044868813117453,3.4248779296875003,14.732812957763672,998.1405639648438,97.85118103027344,59.81854764001799,0.0,26.665179805548807
1557947335278,0.49472122192382817,0.3753910626658445,1.167668815747641,2.8577073669433597,10.093959503173828,998.1405639648438,96.69448852539062,59.81856485844125,0.0,28.50033257689769
1557947335351,0.4722679138183594,0.3892632372474022,0.8856602738697824,1.2199630737304688,8.252488861083984,998.1405639648438,98.35840606689453,59.81860214086772,0.0,26.1066016308988
1557947335415,0.6569837951660157,0.3892632372474022,1.1951265776075526,3.270249481201172,4.499642944335938,998.1405639648438,99.54597473144531,59.81861414082605,0.0,26.464037262230697
1557947335478,-0.20597167968750002,0.3892632372474022,0.6647235053065911,1.1707154846191408,7.5257501220703125,998.1405639648438,100.64957427978516,62.86497060925882,0.0,26.22214022966295
1557947335552,-0.6887178039550782,0.3753910626658445,0.5068892548343242,3.0759535217285157,5.824238433837891,998.1405639648438,102.26793670654297,62.865004114244215,0.0,23.979400086720375
1557947335611,-0.5746549987792969,0.3892632372474022,0.11396285434295321,2.9928762817382815,6.473288726806641,998.1405639648438,102.26793670654297,62.865014987913135,0.0,25.58708570533166
1557947335678,-1.3632151794433593,0.463263818691179,1.9030470813866327,3.7170703125,13.913716278076173,998.1405639648438,102.26793670654297,62.86504854473876,0.0,26.17000341120899
1557947335750,-0.018112335205078125,0.5398851002940913,0.9097624137601475,3.9052290344238285,15.464491424560547,998.1405639648438,98.71456146240234,62.86507181158394,0.0,30.00434077479319
1557947335811,-0.9535171508789063,0.558421051731519,0.7119392617953709,5.604196014404297,12.551698608398437,998.1405639648438,94.78703308105469,62.86508948847873,0.0,26.702458530741243
1557947335878,-1.4597644042968752,0.610699331243876,0.7208628349966321,3.227288818359375,11.27141098022461,998.1500244140625,93.72309875488281,62.865114115133416,0.0,26.148972160331347
1557947335949,-0.6818321228027344,0.5661568970953061,1.5699355390988714,3.3653018188476564,5.452860717773437,998.1500244140625,91.02774810791016,63.554969987784986,0.0,25.440680443502757
1557947336011,-0.6035449218750001,0.573257414751889,0.47405432193825436,1.9001486206054687,6.887926483154297,998.1500244140625,89.82548522949219,63.55499325107069,0.0,22.988530764097067
1557947336078,0.4297563171386719,0.5605778268802316,0.5322008537835355,2.7987300109863282,5.158572692871094,998.1500244140625,89.82548522949219,63.55501665772837,0.0,23.76576957056512
1557947336150,-0.49067962646484375,0.5727782804857584,0.5662282126083952,2.2375469970703126,7.723339233398438,998.1500244140625,88.75724792480469,63.555042759895564,0.0,28.524799936368566
1557947336211,0.9035211181640626,0.5727782804857584,0.4851783756033845,4.33738037109375,6.227649536132813,998.1500244140625,86.89923095703125,63.55507979431812,0.0,28.549130223078553
1557947336278,0.44023452758789067,0.621452127221448,2.2393480280461766,2.9175828552246097,15.39802963256836,998.1500244140625,85.87427520751953,63.55510418100775,0.0,26.739419986340877
1557947336351,0.13906082153320312,0.6145984561803857,0.587797413127466,5.148992614746094,13.701457672119142,998.1500244140625,87.12586975097656,63.555126218926326,0.0,27.17670503002262
1557947336417,-0.7845185852050781,0.6685372632911891,0.5848698021404751,3.1582823181152344,12.048594818115236,998.1500244140625,85.6133804321289,63.555162233529636,0.0,26.414741105040992
1557947336478,-0.025596771240234375,0.593839896013588,1.9604727378132802,4.529281311035157,4.677922210693359,998.1500244140625,81.64571380615234,63.55518525215561,0.0,26.702458530741243
1557947336551,0.5301974487304688,0.6145984561803857,0.6009280973383846,1.9770886230468752,6.58435775756836,998.1500244140625,81.64571380615234,63.5551829165702,0.0,26.324572921847246
1557947336611,0.9240284729003907,0.6619041709587422,0.20942095739713118,2.391127624511719,7.273374938964844,998.1500244140625,81.64571380615234,67.50784407605306,0.0,27.67897616018091
1557947336677,0.5924679565429688,0.7444715074722424,0.10004585549470771,3.1126272583007815,7.104526062011719,998.1500244140625,78.93842315673828,67.50787303925671,0.0,33.84890796530554
1557947336750,-0.43005569458007814,0.8340237036893436,1.1258685479943358,2.758613433837891,11.450289001464844,998.1500244140625,75.35194396972656,67.5079104044334,,40.42732979621721
1557947336811,-0.28231292724609375,0.8375236796799898,1.1730726976602341,3.497327270507813,15.000007324218751,998.1500244140625,72.02641296386719,67.50793646979518,,40.58236168942767
1557947336877,0.4375401306152344,0.9709066343771878,0.4867017729063201,2.006726989746094,12.576996002197266,998.1646728515625,71.00214385986328,67.50795865866749,114.23990885416666,41.30172888892535
1557947336949,-2.548450469970703,1.0349140390897815,1.0059296922412455,5.049748992919922,11.946357421875001,998.1646728515625,68.02127075195312,67.50798128135285,,35.24136376592568
1557947337011,-1.551822967529297,1.1193094174738176,1.136218237478718,2.577939147949219,8.042325897216797,998.1646728515625,65.66400909423828,67.50800248301219,458.475341796875,34.18632687354065
1557947337078,-0.5938151550292969,1.1138369246804842,0.8908337989757544,2.103725280761719,5.8007373046875,998.1646728515625,60.76869201660156,60.57869391403409,458.475341796875,30.895518828864542
1557947337148,-0.9186396789550781,1.1034064478228138,0.12940774403700672,2.963836669921875,6.837780761718751,998.1646728515625,57.96767807006836,60.57871989527993,575.6298828125,33.979400086720375
1557947337212,-0.7210505676269532,1.1159853912590612,0.578708900346574,2.6372158813476565,9.093739471435548,998.1646728515625,57.96767807006836,61.873212655512134,,30.24485667699167
1557947337278,0.7940986633300782,1.1848636597610487,0.9322343297448161,1.6048127746582033,11.796369323730469,998.1646728515625,55.9019775390625,61.873237197542096,0.0,32.38046103128796
1557947337348,0.8424481201171875,1.155273563585632,0.5273554048520812,3.6943176269531253,10.150691528320314,998.1646728515625,51.88148880004883,60.81581375063218,0.0,30.090257420869104
1557947337417,-0.16510665893554688,1.2176612821137849,0.9733218223464829,1.2940589904785156,13.621523895263673,998.1646728515625,50.81010818481445,60.815835091662265,0.0,30.511525224473814
1557947337478,-1.3272898864746094,1.1928933769648427,0.4536504300640536,2.07169189453125,11.63590301513672,998.1646728515625,48.447391510009766,59.634004690946206,0.0,30.41392685158225
1557947337548,-0.9348060607910157,1.180348123645729,0.4545939256242182,-0.0007484436035156251,11.710747375488282,998.1646728515625,43.756961822509766,59.634015933634764,0.0,28.555191556678
1557947337611,-0.14040802001953126,1.1420442354690896,1.3398824945538987,0.8354127502441406,6.50726806640625,998.1646728515625,35.174896240234375,59.63403793489521,0.0,27.371926427047374
1557947337678,-0.7150630187988282,1.1159313951499585,0.4476586961511258,1.2114308166503907,6.096522216796875,998.1646728515625,30.775075912475586,59.63406044748037,0.0,26.560982020128318
1557947337748,-0.7213499450683594,1.180348123645729,0.48802888979746634,0.7720944213867188,8.449479217529298,998.1646728515625,28.30590057373047,59.634081366666486,0.0,25.158738437116792
1557947337812,0.018411712646484377,1.1991253306763572,0.374650256827855,1.938618621826172,8.721912689208985,998.1646728515625,25.254777908325195,59.6340981054549,0.0,29.894498176666918
1557947337878,0.6007008361816406,1.2176612821137849,0.6903616662006483,1.8754499816894532,11.180998992919923,998.1932830810547,20.600202560424805,59.634132445696,0.0,33.47915186501692
1557947337948,0.8247848510742188,1.1676928228396999,0.5857508955959343,1.6458274841308596,12.81859359741211,998.1932830810547,17.782644271850586,59.63415639827133,,32.64581729238078
1557947338011,0.5242098999023438,1.1991253306763572,0.29256955396533296,1.5608042907714845,11.09747268676758,998.1932830810547,14.308992385864258,59.63418131853831,,30.55378331375
1557947338078,-0.012873229980468751,1.310115589300577,0.2948534124961518,1.4663507080078126,12.39946517944336,998.1932830810547,9.02861213684082,59.634205435224615,0.0,30.685568950723628
1557947338147,-0.5191204833984375,1.4087805784690222,1.1444947648761,0.9466314697265625,7.662715301513672,998.1932830810547,3.349780321121216,59.63423316033836,0.0,28.19543935541869
1557947338211,-1.2319381713867188,1.380946630080072,0.46970911778425817,2.154170379638672,7.795040130615234,998.1932830810547,355.6335144042969,59.63425364353159,0.0,28.169038393756605
1557947338278,-0.8746311950683594,1.3800055812384107,0.8122482739441867,1.1680210876464845,11.218570861816406,998.1932830810547,351.3044738769531,59.634276315166545,0.0,26.6838591669
1557947338347,-0.5189707946777344,1.3597553855722426,0.3117892312291247,1.9122734069824219,9.386380920410156,998.1932830810547,346.99786376953125,59.63431261820576,0.0,25.74031267727719
1557947338417,-0.8241860961914063,1.3179352098776154,0.5148546568178056,3.256927185058594,8.238268432617188,998.1932830810547,343.2949523925781,59.634332410019915,0.0,24.668676203541096
1557947338478,-0.8370593261718751,1.3037213506579146,0.09467423518928203,2.8154951477050782,8.761280822753907,998.1932830810547,340.745361328125,59.63435542773581,0.0,26.61812685537261
1557947338546,-0.5098397827148438,1.2821344884497685,0.22716208084973047,3.3138088989257812,9.2591455078125,998.1932830810547,340.745361328125,59.63437994581693,0.0,27.596678446896306
1557947338612,-0.6331832885742188,1.2273951650982673,0.18899963284694055,3.2003448486328128,9.87556365966797,998.1932830810547,339.1422119140625,59.634402240186546,0.0,26.51278013998144
1557947338678,-0.3864962768554688,1.1655299095134082,0.22056712324076697,3.1626232910156253,10.53853500366211,998.1932830810547,329.5782775878906,59.63442264851573,0.0,26.830470382388498
1557947338747,0.5158273315429688,1.0934356609438278,0.26923929867758295,2.6840684509277346,10.379715270996094,998.1932830810547,323.23675537109375,59.634445256452715,0.0,26.263403673750425
1557947338812,0.62989013671875,1.0230498998375799,0.13602046673579496,2.1736299133300783,10.500963134765625,998.1932830810547,319.11309814453125,59.63444827571693,0.0,28.247764624755458
1557947338878,0.48020141601562505,0.9277270302851816,0.3283279893473741,1.9787351989746094,9.261540527343751,998.2345581054688,315.5515441894531,59.63444471849847,0.0,28.85361220031512
1557947338947,-1.136436767578125,0.9534190089825475,1.0462802018653103,0.9933343505859376,13.253888397216798,998.2345581054688,314.1246032714844,59.634447857549404,0.0,25.68201724066995
1557947339012,-0.83107177734375,0.957723307342329,0.893475558617582,1.111139373779297,8.762328643798828,998.2345581054688,312.17193603515625,59.63444504010384,0.0,26.82145076373832
1557947339078,-0.8652008056640625,0.8744537869113359,0.46702900649517204,1.499132537841797,7.8200381469726565,998.2345581054688,312.17193603515625,59.63444459831008,0.0,28.518696007297663
1557947339146,-0.5935157775878906,0.8956943314637276,0.15646691324786322,1.3371693420410158,7.712861022949219,998.2345581054688,311.1249084472656,59.63444667786505,0.0,28.84795363948981
1557947339211,-0.05583389282226563,0.8847785539845442,0.3505207422145041,2.3737637329101564,7.100933532714844,998.2345581054688,311.1249084472656,59.6344453602885,0.0,26.919651027673606
1557947339278,-0.4302053833007813,0.8924109173854585,0.20667585729376747,2.29921875,8.06447982788086,998.2345581054688,309.16473388671875,59.63444569714183,0.0,29.20123326290724
1557947339346,0.015567626953125,0.9113340772429013,0.3093596971118683,3.4242791748046875,7.972271575927735,998.2345581054688,306.7705078125,59.63444278465788,0.0,26.857417386022636
1557947339415,-0.030985565185546876,0.909517149183674,0.2523076186687631,2.2580543518066407,7.607330474853516,998.2345581054688,303.2909240722656,59.63444669035231,0.0,29.916690073799487
1557947339477,-0.3447331237792969,0.9409496570203312,0.2202569998266607,3.035537567138672,7.190447387695313,998.2345581054688,301.75909423828125,59.63444464060293,0.0,27.291647896927703
1557947339546,-2.6496400451660156,0.9656117112546001,1.3837687434828017,3.077450408935547,12.297377471923829,998.2345581054688,297.12432861328125,59.63444173840784,0.0,26.434526764861875
1557947339611,-2.3668780517578125,1.0018318991673534,0.8678320307197841,2.233206024169922,14.415772247314454,998.2345581054688,292.5479431152344,59.634445534415796,0.0,28.241258339165487
1557947339678,-2.0157083129882816,1.088593211086637,0.3228263093004384,3.693868560791016,13.530213775634767,998.2345581054688,288.01123046875,59.63444940740703,0.0,27.62678563727436
1557947339746,-1.4147080993652343,1.1108746584626437,1.3035358919633377,3.792513427734375,8.696465606689454,998.2345581054688,288.01123046875,59.634444243061935,0.0,30.61829307294699
1557947339811,-0.9800120544433594,1.0313358934774366,0.7625272456557384,2.9404852294921877,6.780599670410156,998.2345581054688,290.97955322265625,59.63444360969862,0.0,27.895807121644257
1557947339878,-0.7324269104003907,0.9471548065470393,0.4601753753884263,1.336271209716797,7.360044708251953,998.2764434814453,292.51837158203125,59.63444255530939,0.0,27.671558660821805
1557947339946,-0.06631210327148437,0.909517149183674,0.30694500305406663,1.982926483154297,6.432872772216797,998.2764434814453,293.955810546875,59.63444832038319,0.0,27.888751157754168
1557947340011,-0.027093658447265627,0.8577557214939325,0.20438097930840834,3.0885273742675783,6.935078430175782,998.2764434814453,297.4637145996094,59.634449651038345,0.0,28.721562727482926
1557947340078,-0.8443940734863282,0.8311615114822193,2.3595923877449096,2.524200897216797,16.28508499145508,998.2764434814453,292.92266845703125,59.634443294077144,0.0,27.058637122839194
1557947340147,-0.6577322387695312,0.8577557214939325,0.585836238669498,2.644850006103516,16.253201293945313,998.2764434814453,292.92266845703125,59.634446544863586,0.0,28.536982117761745
1557947340211,-0.5004093933105469,0.8643283754174186,1.1532382528900602,0.9389973449707032,11.388467559814453,998.2764434814453,291.7376708984375,59.6344456252652,0.0,25.05149978319906
1557947340278,-0.13486953735351564,0.7834083800338512,1.6996219189739161,3.217259674072266,5.969436492919923,998.2764434814453,296.3341369628906,59.63444510703114,0.0,25.105450102066122
1557947340346,0.23067031860351564,0.6754256991608394,0.1678591097709299,2.531835021972656,7.798482971191406,998.2764434814453,298.00396728515625,59.6344439196711,0.0,23.783979009481374
1557947340413,0.9630972290039063,0.7268248516674837,0.29513342257169894,2.457140350341797,6.936575317382813,998.2764434814453,298.00396728515625,59.634444950162745,0.0,23.838153659804313
1557947340478,0.4285588073730469,0.6221274730007904,0.3423884512050445,3.296445007324219,8.179291076660157,998.2764434814453,297.4208068847656,59.63444600887074,0.0,24.62397997898956
1557947340547,-0.7418572998046875,0.5907633020914552,0.41185458203342334,3.484304351806641,6.5925906372070315,998.2764434814453,297.4208068847656,59.63444670607854,0.0,26.73020907128896
1557947340612,-1.3599220275878907,0.5175968895294836,0.8903201218531006,4.110901336669922,10.152188415527345,998.2764434814453,299.81634521484375,59.634443712013706,0.0,23.242824552976927
1557947340678,-0.5198689270019532,0.8311615114822193,0.6787422643719545,2.5608746337890627,11.760593719482422,998.2764434814453,291.2326965332031,59.6344451992747,0.0,26.19093330626743
1557947340747,-0.30446685791015626,0.8838685618130637,0.4273367408343455,3.9558238220214847,12.846136322021485,998.2764434814453,291.2326965332031,59.6344457958259,0.0,24.638929889859075
1557947340811,-0.01916015625,0.8967498531097962,0.3030776119098314,2.977158966064453,11.392060089111329,998.2764434814453,290.1463928222656,59.63444738759878,0.0,21.958996524092335
1557947340878,-0.4854405212402344,0.8511529866696854,1.0765680621090021,3.5175352478027344,7.380252685546876,998.3039093017578,289.99969482421875,59.634442859205485,0.0,21.303337684950062
1557947340947,0.7301815795898438,0.8311615114822193,0.8473648150619447,3.441343688964844,5.25272689819336,998.3039093017578,293.8534240722656,59.63444370193162,0.0,24.871383754771866
1557947341011,-0.19040405273437502,0.7834083800338512,0.3623243951036081,2.5677603149414066,6.931485900878907,998.3039093017578,293.8534240722656,59.6344445220965,0.0,20.644579892269185
1557947341078,0.37811370849609377,0.7411801446445536,0.2579561552745177,2.9584478759765624,7.6754388427734375,998.3039093017578,293.8534240722656,59.63444537199614,0.0,26.75778341674085
1557947341147,0.8012837219238281,0.7195932824364077,1.034947473887578,4.580025787353516,11.051817626953126,998.3039093017578,292.6259765625,59.63444379176897,0.0,26.748611407378114
1557947341211,1.8389259338378907,0.6603974899285076,1.132783688704962,2.676284637451172,14.290333099365235,998.3039093017578,289.4936218261719,59.634445143469584,0.0,23.344537511509312
1557947341278,0.5381309509277344,0.5986685001768013,0.3432926774570737,3.001109161376953,14.185251617431641,998.3039093017578,287.8423767089844,59.634444375600985,0.0,25.751878449276614
1557947341347,0.8722361755371094,0.5341797737250878,1.2584374133446414,2.6304798889160157,8.933722229003907,998.3039093017578,289.6683044433594,49.69145634101312,0.0,21.55336037465062
1557947341414,0.8979826354980469,0.4923595980304607,0.6969371736291158,2.869083709716797,7.404801635742188,998.3039093017578,290.796142578125,49.69148607501981,0.0,22.20108088040055
1557947341478,0.7539820861816406,0.47528608467151934,0.19730150841331234,2.6123675537109374,7.354655914306641,998.3039093017578,290.796142578125,49.69149801304717,0.0,22.671717284030137
1557947341546,0.7542814636230469,0.44929087613857466,0.13431037316403896,2.3763084411621094,7.991431732177735,998.3039093017578,290.796142578125,49.69152369504413,0.0,23.483048630481605
1557947341612,0.7207511901855469,0.44929087613857466,0.023213803694692028,2.5246499633789066,7.844587097167969,998.3039093017578,290.796142578125,49.69154242064006,0.0,26.020599913279625
1557947341678,0.779429168701172,0.44052066651084276,0.4352727023097429,3.8016444396972657,6.990762634277344,998.3039093017578,292.2427978515625,49.691559634763266,0.0,28.47572659142112
1557947341747,0.9145980834960938,0.5175968895294836,0.38192688241830386,3.6027081298828127,8.731492767333984,998.3039093017578,289.6594543457031,49.691584609356795,0.0,29.180303367848804
1557947341812,-0.02305206298828125,0.5505742119757564,0.9620102526684781,4.027075653076172,12.040811004638673,998.3039093017578,287.38079833984375,49.691598243876015,0.0,27.686381012476144
1557947341878,0.149688720703125,0.5828145489759643,0.07119674556516263,4.303700408935547,11.199859771728516,998.3123016357422,284.98663330078125,49.69161463300133,0.0,26.08526033577194
1557947341947,-0.27991790771484376,0.5587020928591567,0.5364448174363743,2.591261444091797,12.484488372802735,998.3123016357422,283.386962890625,49.691633535690784,0.0,28.785217955012065
1557947342011,-1.4016851806640627,0.5175968895294836,1.3723982855497785,5.406157836914063,7.37905517578125,998.3123016357422,283.386962890625,49.69164915827808,0.0,24.424797690644485
1557947342078,-0.22543121337890626,0.4138855400073761,0.5036372844128855,3.0100904846191407,8.860075378417969,998.3123016357422,286.5279846191406,49.69168155616596,0.0,23.46352974450639
1557947342147,-0.0532891845703125,0.4138855400073761,0.5034289996180555,3.7067417907714844,6.791227569580078,998.3123016357422,283.884765625,49.69170037415606,0.0,24.014005407815443
1557947342211,-0.2824626159667969,0.4138855400073761,0.08707812366082963,3.2383657836914064,7.320826263427735,998.3123016357422,285.0823669433594,49.69171744146786,0.0,24.03120521175818
1557947342278,-0.6083349609375001,0.3775894107843861,0.16394981912012407,3.812721405029297,7.015910339355469,998.3123016357422,285.0823669433594,49.69173249905382,0.0,29.58085848521085
1557947342348,-0.27872039794921877,0.38674941006986185,0.10581789349113149,3.951482849121094,7.31199462890625,998.3123016357422,285.0823669433594,49.69174580974004,0.0,27.234556720351858
1557947342416,0.9029223632812501,0.42281866477738367,1.2880204679641916,3.2732432556152347,12.218491516113282,998.3123016357422,285.0823669433594,49.69176222289685,0.0,26.053050461411097
1557947342481,0.5897735595703125,0.34035650458541084,1.1397676908689696,1.7137861633300782,15.203134918212891,998.3123016357422,278.8478698730469,49.69177807818301,0.0,25.809249756756195
1557947342548,0.31150222778320313,0.34975520258766024,0.4836601942837285,2.748135223388672,12.330907745361328,998.3123016357422,278.8478698730469,45.418013509089654,0.0,25.921767573958668
1557947342612,0.21510269165039064,0.34035650458541084,1.0292117444424747,2.507435760498047,8.67236572265625,998.3123016357422,277.79205322265625,45.418031333670285,0.0,26.51278013998144
1557947342678,0.559237060546875,0.32137340121783786,0.4906872475060226,2.8648924255371093,7.790399780273438,998.3123016357422,279.75469970703125,45.41804887156434,0.0,22.624510897304294
1557947342747,0.4186793518066406,0.31540369779688326,0.18492208402468385,2.186054077148438,7.833360443115235,998.3123016357422,279.75469970703125,45.41804865452594,0.0,22.09515014542631
1557947342811,0.48559020996093755,0.29319722349401334,0.06084255339936875,2.193538513183594,7.993976440429688,998.3123016357422,279.4958801269531,45.41804793055924,0.0,22.380461031287954
1557947342878,0.7680528259277344,0.286896176846929,0.32767208795083025,2.904859313964844,6.88568115234375,998.3148193359375,279.4958801269531,45.418047036213686,0.0,25.646660642520892
1557947342948,0.43664199829101563,0.3135368846995685,0.4654775226656971,3.0124855041503906,8.978628845214844,998.3148193359375,279.4958801269531,45.41804946235024,0.0,26.39486489268586
1557947343011,-0.052241363525390626,0.34758410354603325,0.45220013704363715,3.6911741638183595,10.072554016113282,998.3148193359375,275.6688232421875,49.584130416372936,0.0,24.199557484897582
1557947343078,-0.34203872680664066,0.4229488022785025,0.2614804180610283,3.1753468322753906,10.580597534179688,998.3148193359375,275.6688232421875,49.58414503656718,0.0,25.910646070264992
1557947343147,-1.3093272399902345,0.4459099507218135,0.49967366696359705,3.5947746276855472,12.007879486083985,998.3148193359375,272.3227233886719,49.58417313181922,0.0,24.983105537896005
1557947343212,-2.348915405273438,0.4459099507218135,0.5843739318848985,4.140390014648438,9.763297119140626,998.3148193359375,271.1560974121094,49.58419147727325,0.0,23.636119798921445
1557947343278,-1.1479627990722656,0.3759002294740712,0.7844630050010958,3.091521148681641,7.381749572753907,998.3148193359375,271.1560974121094,49.58420699327229,0.0,21.105897102992486
1557947343348,-1.33881591796875,0.383848982589562,0.25045410077674285,3.4453852844238284,8.851393432617188,998.3148193359375,269.9563293457031,49.584225917929686,0.0,21.46128035678238
1557947343412,-0.40490798950195317,0.4037877022417968,0.4323180821110382,2.981350250244141,7.434739379882813,998.3148193359375,267.26171875,49.58425340814837,0.0,21.875207208364632
1557947343481,-0.8129594421386719,0.35647006677762155,0.1363941243376766,3.131338348388672,8.268056488037109,998.3148193359375,268.4703063964844,49.58427087882393,0.0,19.54242509439325
1557947343548,-2.0577708435058595,0.3475221201282285,0.3626771068336783,2.715503082275391,7.595804443359375,998.3148193359375,266.4663391113281,49.5842883383584,0.0,35.71825249040829
1557947343611,-0.48289581298828127,0.30778171804984134,0.44949580247711535,2.4529490661621094,8.965456237792969,998.3148193359375,263.9504699707031,49.584305334671875,,30.42181594515766
1557947343678,-0.3673361206054688,0.33936359674106475,1.1388739356659765,4.106260986328126,12.914693756103516,998.3148193359375,255.90423583984375,49.58432691514743,0.0,27.723217067229196
1557947343746,0.8629554748535156,0.4369848426692654,1.4477736440642963,0.5427713012695313,16.506324920654297,998.3148193359375,251.24806213378906,49.584354255737836,0.0,26.646419755561258
1557947343811,-1.7097445678710939,0.4303517503368183,0.6226418346389688,1.9993922424316408,14.474599914550781,998.3148193359375,249.92276000976562,49.584370784958736,0.0,25.538830266438744
1557947343878,0.056582336425781254,0.3830460355584617,1.4755234765390484,0.8213420104980469,9.003477172851563,998.3295440673828,249.92276000976562,49.58438993107271,0.0,37.46166964377285
1557947343947,0.1986369323730469,0.3341364350775151,1.1014131450243994,1.9058367919921877,6.121819610595703,998.3295440673828,245.53294372558594,49.584407333987905,,21.43014800254095
1557947344011,-0.8273295593261719,0.27613083164194985,0.39356043779317174,3.3287777709960937,6.863227844238281,998.3295440673828,246.24099731445312,49.584425369254625,0.0,25.13217600067939
1557947344078,-0.9970765686035157,0.2537630186134953,0.3367631137493162,2.7265800476074222,8.16896255493164,998.3295440673828,243.42193603515625,49.58444738079317,0.0,24.533183400470374
1557947344147,-1.4590159606933595,0.29085233734871535,0.3639015357429987,2.5956024169921874,9.18145706176758,998.3295440673828,239.6446533203125,49.5844677934478,0.0,24.14973347970818
1557947344211,-1.6898359680175783,0.3761596499732217,0.18623377793336995,1.9905606079101563,8.804241485595703,998.3295440673828,235.40838623046875,49.584485544885425,0.0,25.024271199844325
1557947344278,-3.4658926391601566,0.4953490051832541,0.9803800627087392,2.2267694091796875,12.261452178955079,998.3295440673828,227.14990234375,49.584496731073266,0.0,26.444385894678387
1557947344348,-2.11480224609375,0.8888204042788983,0.8611876045295036,-1.0731184387207031,10.831625518798829,998.3295440673828,219.18484497070312,49.58451011893413,0.0,25.352941200427708
1557947344414,-3.7919146728515627,0.8500404265913944,0.6308031002180543,0.7321275329589844,9.163943481445314,998.3295440673828,214.47787475585938,49.58453037467857,0.0,26.830470382388498
1557947344481,-3.0732591247558596,1.0204531573994122,0.19148268693722753,0.013022918701171875,10.036479034423829,998.3295440673828,207.7248992919922,49.58454915611566,0.0,23.944516808262165
1557947344547,-2.5735981750488284,1.1080487437199966,0.34980379825395885,0.9264234924316407,9.129814453125,998.3295440673828,200.23338317871094,49.58457832015262,0.0,20.128372247051722
1557947344611,-2.0149598693847657,1.2115248636697376,0.2152467719553838,1.0919792175292968,9.114845581054688,998.3295440673828,190.2325439453125,49.58459460691886,0.0,19.637878273455552
1557947344678,-1.2780422973632812,1.2146560532675896,0.3864261913900973,1.7157321166992188,8.158484344482423,998.3295440673828,184.09182739257812,49.58461069701389,0.0,21.03803720955957
1557947344747,-0.7945477294921875,1.2282361415376382,0.2202077911815318,1.2997471618652345,8.870254211425781,998.3295440673828,177.3938446044922,49.58462876584124,0.0,22.068258760318496
1557947344811,-0.5116360473632813,1.26409804806071,0.22536174809135884,1.7295034790039063,9.435329132080078,998.3295440673828,171.2919464111328,49.58465125686656,0.0,23.76576957056512
1557947344879,0.03158432006835938,1.2824365286562294,0.18015366336021274,1.5019766235351564,9.00572250366211,998.3579254150391,164.18077087402344,49.332678019817195,0.0,21.702617153949575
1557947344947,0.31674133300781254,1.3324772111558247,0.29549092054333215,1.7932708740234375,10.132878570556642,998.3579254150391,159.114501953125,49.3327036377291,0.0,20.128372247051722
1557947345012,0.2089654541015625,1.358204036274194,0.26014047878088076,2.5857229614257813,10.457703094482422,998.3579254150391,155.8148651123047,49.33271901784858,0.0,20.863598306747484
1557947345079,-0.3095562744140625,1.312046806582467,0.36698033536140606,3.742966461181641,10.389145660400391,998.3579254150391,150.6202850341797,49.332737981229776,0.0,23.364597338485297
1557947345146,-0.91729248046875,1.4324967669990127,1.0817464185727799,0.5134323120117188,13.65056350708008,998.3579254150391,149.48777770996094,50.12872078407181,0.0,30.737183503461228
1557947345212,-1.7757572937011719,1.3776418193783926,0.7283457723154214,0.775986328125,10.17164794921875,998.3579254150391,149.48777770996094,50.1287440559072,0.0,33.45569756056392
1557947345278,-2.67523681640625,1.3686217748909195,0.35238886577702,0.20193008422851563,11.189680938720704,998.3579254150391,149.48777770996094,50.12875173216251,,26.839471307515122
1557947345348,-2.302511901855469,1.3428612009593452,0.5299434627882864,0.7135661315917969,9.009315032958984,998.3579254150391,150.9248504638672,50.12875398557123,0.0,26.665179805548807
1557947345414,-1.964814147949219,1.2644345540025288,0.5432861370043778,0.4920268249511719,7.39342529296875,998.3579254150391,151.96800231933594,50.12875160597869,0.0,23.344537511509312
1557947345481,-1.2964540100097657,1.1984712916241707,0.2068425950639721,0.7696994018554688,7.702382812500001,998.3579254150391,151.96800231933594,50.12875684793133,0.0,31.2515582958053
1557947345548,-1.0687774658203126,1.2068835314403707,0.37491838936107724,1.0288105773925782,8.882977752685548,998.3579254150391,151.96800231933594,50.1287537309655,0.0,31.007150865730818
1557947345612,-1.1343411254882814,1.2152470043749972,0.3082825101143189,0.9830058288574219,10.044262847900391,998.3579254150391,151.96800231933594,51.86153034615769,0.0,27.81755374652469
1557947345678,-1.8992504882812502,1.2482243268212698,0.29502752696261697,1.858235778808594,9.9393310546875,998.3579254150391,145.717529296875,51.86153998373893,0.0,26.074550232146688
1557947345747,-1.763632507324219,1.280464663821478,0.42694329583900215,0.6403683471679688,11.228150939941408,998.3579254150391,142.54330444335938,51.861569493381154,0.0,28.075350280688532
1557947345811,-2.113455047607422,1.1984712916241707,0.39465948021408315,1.1787986755371094,9.412875823974609,998.3579254150391,138.69491577148438,51.86157295206739,0.0,24.969296480732147
1557947345878,-1.9857705688476563,1.1469409909840884,0.3728777120002258,1.9022442626953127,8.528963928222657,998.3907318115234,134.04251098632812,51.86157145661933,0.0,26.1066016308988
1557947345947,-1.4120137023925783,1.0094374672341537,0.44908815805091906,0.97477294921875,10.410850524902344,998.3907318115234,129.54083251953125,51.86157118600859,0.0,23.856062735983123
1557947346011,-0.5977070617675782,0.9233003632982236,0.3237843512862672,1.0794053649902344,9.220376129150392,998.3907318115234,125.11463928222656,51.8615694885157,0.0,23.201462861110542
1557947346078,-0.310155029296875,0.8794718616779605,0.616891600654394,1.0451266479492187,7.013215942382812,998.3907318115234,124.02516174316406,51.86157071153063,0.0,26.9810054562339
1557947346147,-0.03308120727539063,0.8889600818819009,0.21070360524754309,1.6804055786132814,7.222630462646484,998.3907318115234,122.4333724975586,51.86156949467661,0.0,25.932860670204573
1557947346212,-1.1069480895996093,0.8950446655984214,0.607321244442807,3.5218762207031253,6.334976348876953,998.3907318115234,123.7745132446289,51.86156924208001,0.0,33.66049209800235
1557947346278,-1.131646728515625,0.751739296296394,1.1159400480014645,2.659519500732422,11.02232894897461,998.3907318115234,123.7745132446289,51.861572245526936,,33.356584522893016
1557947346347,-1.0689271545410157,0.6044171702115105,1.852661675982126,1.0638377380371093,17.167050933837892,998.3907318115234,125.5542221069336,51.861568874629455,,34.35047641339965
1557947346413,-1.086291046142578,0.5377805119691681,0.13362154504081583,1.787732391357422,14.852264556884766,998.3907318115234,125.5542221069336,51.86157186000848,333.5997178819444,32.20108088040055
1557947346481,-0.4736151123046875,0.4895436666727905,1.1628323060991952,-0.168848876953125,10.786419525146485,998.3907318115234,124.29312133789062,51.86157185795915,,32.474822606770545
1557947346547,-0.4788542175292969,0.5085028988475815,1.525143771814614,2.3126907348632812,6.07376953125,998.3907318115234,123.10718536376953,51.861570708529285,,28.987251815894936
1557947346612,-0.9469308471679688,0.48179434610404914,0.13982388472732662,1.4687457275390625,7.533384246826173,998.3907318115234,123.10718536376953,51.86156862863408,0.0,29.237619608287005
1557947346678,-0.08637039184570312,0.447228254486441,0.5334840763522876,1.325792999267578,5.5375845336914065,998.3907318115234,121.57476806640625,51.861570550602856,0.0,27.38780558484369
1557947346748,-0.32138168334960937,0.3775894107843861,0.29386227225396194,1.6699273681640625,4.898114318847656,998.3907318115234,120.33663177490234,51.86157293286568,0.0,29.395192526186186
1557947346811,-0.28889923095703124,0.30188889132240176,0.2044649657850625,1.77949951171875,5.979315948486328,998.3907318115234,119.25778198242188,51.86157485898385,0.0,28.920946026904804
1557947346878,-1.2633728027343751,0.30096438309410384,2.204646916219303,1.3214520263671876,14.535523223876954,998.4180450439453,120.26667022705078,51.86157433651356,0.0,26.748611407378114
1557947346948,-0.14415023803710938,0.3447652693511607,0.6421002584238101,0.23725662231445313,13.41540252685547,998.4180450439453,121.68795013427734,51.8615714808254,0.0,29.479236198317263
1557947347011,-2.88120849609375,0.16367755691635144,1.2209997399113914,3.5188824462890627,14.91902572631836,998.4180450439453,117.84029388427734,51.861573221241564,0.0,26.37489729512511
1557947347078,-2.5099804687500002,0.009070187342549167,1.3153734264251216,4.476441192626953,9.554032287597657,998.4180450439453,116.30052947998047,51.861569576928254,0.0,26.63700925389648
1557947347146,-0.7300318908691407,-0.08712498005482577,1.0738347771284318,2.082469482421875,7.343129882812501,998.4180450439453,112.15299987792969,51.861568670576474,0.0,28.512583487190753
1557947347212,-0.29338989257812503,-0.1361477615640945,0.5828881390735327,1.548380126953125,6.290069732666016,998.4180450439453,112.15299987792969,51.861570506451685,0.0,24.1161970596323
1557947347278,0.21749771118164063,-0.183289644815321,0.3819540200926673,0.9523196411132813,5.727240142822266,998.4180450439453,112.15299987792969,51.86157228974044,0.0,29.556877503135055
1557947347347,0.7441026306152344,-0.23195749045420766,0.7160458751259065,0.8402027893066407,8.743767242431641,998.4180450439453,113.37166595458984,51.86157198821346,0.0,27.611758131557313
1557947347413,0.21016296386718752,-0.29730681080541443,2.5116886595322505,0.42810974121093753,18.082996215820312,998.4180450439453,117.71212005615234,51.861572587258735,0.0,24.84299839346786
1557947347481,-2.5334815979003906,-0.36786115498544414,0.8409990254675583,2.615511016845703,16.279247131347656,998.4180450439453,117.71212005615234,51.86157256887217,0.0,31.972805581256193
1557947347548,-1.2865745544433593,-0.45772298986271226,1.0465847785906577,0.996328125,12.058174896240235,998.4180450439453,116.5704345703125,51.86157332981871,0.0,29.75431808509263
1557947347612,-0.3704795837402344,-0.5546657367954271,1.7886973955200343,2.0377125549316406,6.0324554443359375,998.4180450439453,116.5704345703125,49.992022950715054,,25.50228353055094
1557947347679,0.28800109863281254,-0.6754542652883876,0.39935900678339564,1.738634490966797,6.485263824462891,998.4180450439453,115.5158920288086,49.99202183491754,0.0,24.885507165004444
1557947347747,0.77838134765625,-0.6882126476113603,0.26440015258838895,1.9549346923828126,6.220165100097657,998.4180450439453,116.54281616210938,49.992017431504024,0.0,23.50248018334163
1557947347811,0.7250921630859375,-0.741779708764594,0.04903262235849247,1.826202392578125,6.3741947937011725,998.4180450439453,114.96855926513672,49.99201632296895,0.0,23.820170425748685
1557947347878,1.1886781311035157,-0.668821928995799,0.2781210328329478,2.741249542236328,5.904770965576172,998.4366607666016,113.93035888671875,49.992018376540294,0.0,31.628629933219262
1557947347948,-0.058528289794921876,-0.6544194883515768,0.5869239730219213,2.9234207153320315,8.206684112548828,998.4366607666016,112.38761138916016,49.9920204598373,0.0,29.32473764677153
1557947348012,-2.138453063964844,-0.6838317579134225,1.8134448050857264,2.18665283203125,14.418017578125001,998.4366607666016,111.07662200927734,49.99202000397921,0.0,26.857417386022636
1557947348078,-0.8822653198242187,-0.674308983794916,0.17017942648248077,2.102378082275391,12.500355377197266,998.4366607666016,109.65638732910156,49.99201850978889,0.0,26.263403673750425
1557947348147,-2.711162109375,-0.6934178067426209,0.5925847843506528,2.523003387451172,14.19138885498047,998.4366607666016,107.06369018554688,49.99201962933918,0.0,25.263392773898442
1557947348212,-2.3502626037597656,-0.7523114957961893,1.3180765535258503,3.7953575134277346,8.690627746582031,998.4366607666016,104.05361938476562,49.99201771033068,0.0,25.899496013257078
1557947348278,-0.768651580810547,-0.7523114957961893,1.0721217985254454,2.528092803955078,6.080655212402344,998.4366607666016,102.24679565429688,49.99201794296141,0.0,24.517864355242903
1557947348346,-0.44786865234375,-0.7324119383584844,0.41411153324176914,1.2714559936523437,7.198081512451172,998.4366607666016,102.24679565429688,49.9920197715684,0.0,23.50248018334163
1557947348413,-0.06271957397460938,-0.7623651604601122,0.2760010074793228,2.2579046630859376,6.437513122558594,998.4366607666016,99.32144165039062,55.306594388758484,0.0,27.902851640332415
1557947348482,-0.03667373657226563,-0.803295424514994,0.30409188104165535,2.3020628356933597,7.807015228271485,998.4366607666016,97.08348083496094,55.306618613427055,0.0,31.010593549081158
1557947348547,-0.41119491577148437,-0.8242044142779748,1.7654535750689648,1.5379019165039063,14.462175750732422,998.4366607666016,97.08348083496094,55.30663983149027,0.0,26.03144372620182
1557947348611,-1.5471826171875,-0.8347736559881623,1.1738618530170417,1.756597137451172,17.299525451660156,998.4366607666016,97.08348083496094,55.30666532143918,0.0,29.916690073799487
1557947348678,-0.8988807678222657,-0.8454209001876705,1.1905100505222872,1.0232720947265626,11.51525390625,998.4366607666016,95.73410034179688,55.306662589805256,0.0,32.52853030979893
1557947348748,0.22228775024414063,-0.8347736559881623,1.6163345319220201,2.9568013000488285,6.562054138183594,998.4366607666016,93.53351593017578,55.306662223693,0.0,25.09202522331103
1557947348811,-0.28830047607421877,-0.8561473067807293,0.21702519082626104,1.703757019042969,7.926766204833985,998.4366607666016,97.22185516357422,55.30666156617314,0.0,23.59835482339888
1557947348878,0.35700759887695316,-0.8347736559881623,0.4047098109737001,0.6629713439941407,7.125931549072266,998.4529113769531,98.4083480834961,55.30666477772382,0.0,23.201462861110542
1557947348948,-0.7285350036621094,-0.8888134957010513,0.839635368307086,3.093167724609375,4.718936920166016,998.4529113769531,98.4083480834961,55.306659992534,0.0,22.430380486862944
1557947349012,-0.3894900512695313,-0.9564522125764143,0.1478414135565027,2.105072479248047,5.880521392822266,998.4529113769531,99.93217468261719,55.30666477074204,0.0,27.267272090265724
1557947349078,-1.194965057373047,-0.9680401868516265,0.8680728750436837,3.715573425292969,8.766819305419922,998.4529113769531,99.93217468261719,55.3066618926356,0.0,24.814426285023053
1557947349148,-1.0187814331054688,-1.027418733930558,1.7433996562639495,2.1712348937988284,14.889986114501953,998.4529113769531,99.93217468261719,55.30666345868469,0.0,33.447851226326605
1557947349212,-0.6234535217285156,-0.9564522125764143,0.2864865305702791,1.4635066223144533,13.354030151367189,998.4529113769531,96.4587173461914,55.30666206209306,0.0,24.517864355242903
1557947349278,-2.190245361328125,-0.9680401868516265,0.4804381843532965,2.7105633544921877,13.28996337890625,998.4529113769531,93.66980743408203,55.30666341521441,0.0,22.96665190261531
1557947349346,-1.5816110229492188,-1.0395934478766602,1.192167189397777,2.9931756591796876,8.557554473876953,998.4529113769531,89.59825897216797,55.30666453070049,0.0,29.047155452786807
1557947349414,-0.6755451965332031,-1.0767464462941263,0.8994528296606762,2.6529331970214844,6.2789927673339845,998.4529113769531,87.86505889892578,55.30666506979216,0.0,25.07855871695831
1557947349478,-0.5683680725097656,-1.1278206308883956,0.17981738010890824,2.794838104248047,6.520141296386719,998.4529113769531,87.86505889892578,55.306663311936305,0.0,23.483048630481605
1557947349548,-0.45655059814453125,-1.1148815751808974,0.3121885898952837,2.1778211975097657,7.756270751953125,998.4529113769531,89.22391510009766,55.30666314015457,0.0,25.024271199844325
1557947349612,-1.419049072265625,-1.1278206308883956,0.48015505798866054,2.2598506164550782,9.174721069335938,998.4529113769531,90.57522583007812,55.30666269245529,0.0,26.384892569546373
1557947349678,-0.7298822021484376,-1.1278206308883956,0.22552050331911636,1.8309924316406252,9.387279052734376,998.4529113769531,94.1666259765625,55.306666388196,0.0,26.55138434811382
1557947349747,-1.6015196228027344,-1.2217967790974094,0.9975963598043229,2.2438339233398437,13.135035552978517,998.4529113769531,95.39788818359375,55.30666511971369,0.0,26.989700043360187
1557947349811,-1.4959890747070312,-1.2783803074637767,0.5912401358397844,2.2646406555175784,14.519955596923829,998.4529113769531,96.51728820800781,55.30665889918345,0.0,27.331972651065698
1557947349878,-0.10403366088867189,-1.2928798771588919,1.2153123028880375,2.114652557373047,9.267378387451172,998.4757232666016,98.53345489501953,55.306663769156366,0.0,24.756711883244297
1557947349947,-0.3968247985839844,-1.3075266531232932,0.9391634000918344,2.9960197448730472,6.7740133666992195,998.4757232666016,95.86126708984375,55.306661486304584,0.0,26.55138434811382
1557947350012,-0.9102571105957031,-1.3075266531232932,0.2803421484896634,1.9775376892089844,7.091353454589844,998.4757232666016,95.86126708984375,55.30666538279048,0.0,27.916906490201182
1557947350078,0.11705657958984375,-1.3523808889075537,0.26980056037385247,1.5964302062988283,7.347919921875,998.4757232666016,94.2000503540039,55.30666316823428,0.0,26.11723308007342
1557947350148,0.7704478454589844,-1.3523808889075537,0.3788461632166808,1.7958155822753907,8.554411010742188,998.4757232666016,94.2000503540039,55.30666228908727,0.0,27.12649701627211
1557947350211,-0.5480104064941407,-1.3372739965173455,0.8214859448704371,3.2251931762695314,10.986253967285156,998.4757232666016,92.86286926269531,55.30666359009482,0.0,26.294095991027188
1557947350278,-0.858464813232422,-1.2928798771588919,0.5564177727838233,2.1707858276367187,12.333452453613281,998.4757232666016,92.86286926269531,56.15117555699611,0.0,25.41579243946581
1557947350348,-2.340981903076172,-1.264025014486707,0.5708468496906687,3.1747480773925782,13.193264465332032,998.4757232666016,92.86286926269531,56.151192734927655,0.0,25.943925503754265
1557947350412,-3.1569351196289066,-1.2783803074637767,0.6731837813914519,4.135001220703125,10.755883026123048,998.4757232666016,92.86286926269531,56.15121192979385,0.0,24.82873583608754
1557947350478,-1.2533436584472657,-1.3075266531232932,0.9725946888576809,2.576891326904297,7.96628402709961,998.4757232666016,91.84295654296875,56.151243229473025,0.0,24.927603890268376
1557947350548,-1.1692185974121094,-1.2928798771588919,0.41981769578205486,2.66565673828125,7.202721862792969,998.4757232666016,90.67189025878906,56.15126612958437,0.0,22.09515014542631
1557947350612,-0.987945556640625,-1.2928798771588919,0.21077382909579076,3.220253448486328,6.990912322998048,998.4757232666016,88.29649353027344,56.15128613002992,0.0,22.7415784926368
1557947350678,-0.5656736755371095,-1.322323655051374,0.5353588001557238,2.7785220336914063,9.201814727783203,998.4757232666016,87.15188598632812,56.15128874353658,0.0,29.684829485539353
1557947350747,0.7063810729980469,-1.3676476455608642,0.44890781156030773,2.7629544067382814,9.811945953369142,998.4757232666016,82.71815490722656,56.15128564970456,0.0,26.5991620006985
1557947350811,0.0031434631347656253,-1.3986745411814885,0.5553201370707112,3.574117584228516,11.577374725341798,998.4757232666016,80.56795501708984,56.15128792006446,0.0,24.36162647040756
1557947350878,0.5382806396484375,-1.453058178340028,0.6524595221070532,3.340004425048828,13.636792144775391,998.5076141357422,80.56795501708984,56.15128877192683,0.0,24.14973347970818
1557947350948,0.9979747009277344,-1.3114868396365487,0.478562253364067,2.888094177246094,11.226204986572267,998.5076141357422,81.91136932373047,56.1512852029728,0.0,23.404441148401183
1557947351012,0.3730242919921875,-1.3360644085987894,0.44747154773536596,2.4445664978027346,10.03752685546875,998.5076141357422,81.91136932373047,56.151288646122254,0.0,21.931245983544617
1557947351078,1.4088702392578125,-1.4346282430823791,0.8898617679229684,2.3465203857421875,7.013665008544923,998.5076141357422,76.30342102050781,56.15128668583844,0.0,20.41392685158225
1557947351148,0.32257919311523436,-1.6045532445246913,0.4238932652567406,3.6217185974121096,7.05812255859375,998.5076141357422,74.20211029052734,56.151284864926,0.0,21.271047983648078
1557947351212,-0.0161663818359375,-1.7145547214714323,0.17471501418465935,3.7092864990234378,7.432344360351563,998.5076141357422,72.87591552734375,56.15128895559798,0.0,25.976951859255124
1557947351278,0.6267466735839844,-1.449058968033649,0.6440686547799205,3.7242553710937503,4.865781555175782,998.5076141357422,74.30905151367188,56.15128780193474,0.0,25.575072019056577
1557947351348,1.0484197998046876,-1.3208238778919672,1.2205552038808176,2.9759614562988284,10.294392700195313,998.5076141357422,72.86206817626953,56.15128545481912,0.0,31.338581252033343
1557947351413,-0.5731581115722657,-1.2624071916666453,0.7640316662073052,1.9571800231933594,11.48217269897461,998.5076141357422,72.86206817626953,56.15128900321181,,32.85557309007774
1557947351481,-0.9261241149902344,-1.251002428394396,1.1382697711211345,2.5072860717773438,15.344740447998047,998.5076141357422,68.48372650146484,56.15128705201621,0.0,32.7669152884504
1557947351548,-0.28380981445312503,-1.1952929958081082,0.8788397336064525,2.009571075439453,10.826536102294922,998.5076141357422,67.18762969970703,56.1512872357743,0.0,25.09202522331103
1557947351612,-0.3770658874511719,-1.251002428394396,0.45858971469864135,2.8931835937500003,9.971813507080078,998.5076141357422,61.242088317871094,51.764946758328875,0.0,23.117538610557542
1557947351678,-0.49217651367187504,-1.2624071916666453,0.6384597743692084,2.7092161560058594,7.847281494140625,998.5076141357422,57.268394470214844,51.764963862602286,0.0,23.560258571931225
1557947351748,1.3822256469726564,-1.2624071916666453,0.7513153683856475,0.700393524169922,7.228019256591797,998.5076141357422,50.2955207824707,51.76498602330659,0.0,22.227164711475833
1557947351811,0.21749771118164063,-1.3208238778919672,0.4809605850073814,0.09580078125000001,8.948990478515626,998.5076141357422,51.62517166137695,51.76500567074105,0.0,27.708520116421443
1557947351878,1.7477655029296877,-1.3570440658047205,0.9629132905722528,2.731370086669922,11.324550476074219,998.5443878173828,48.72129440307617,51.765024120305384,0.0,28.394780473741985
1557947351947,1.5503260803222656,-1.3941970642221864,0.11034103760430362,1.815275115966797,10.381361846923829,998.5443878173828,45.923126220703125,51.7650507038631,0.0,23.324384599156055
1557947352012,1.4397061157226563,-1.2396871151665618,0.5772547409279644,-0.5938151550292969,9.945767669677736,998.5443878173828,44.048988342285156,51.765070353063976,0.0,26.042260530844704
1557947352078,-1.595232696533203,-1.251002428394396,1.010975450847388,-0.20582199096679688,10.777587890625,998.5443878173828,43.07048034667969,51.76509690290068,0.0,24.216039268698314
1557947352147,0.46538223266601564,-1.251002428394396,0.49968259899379036,-1.5362553405761719,9.811496887207031,998.5443878173828,38.43611145019531,51.76510649098098,0.0,28.000293592441345
1557947352212,-0.9351054382324219,-1.2739028305044748,0.7790540627188021,0.17244140625,12.586426391601563,998.5443878173828,36.83204650878906,51.76513569821874,0.0,25.301996982030822
1557947352278,3.010838928222656,-1.251002428394396,1.6000389732421112,0.8343649291992188,6.2860281372070315,998.5443878173828,22.844554901123047,51.76515287839484,0.0,23.979400086720375
1557947352348,0.08487350463867188,-1.2624071916666453,1.5833137238758697,1.2325369262695314,13.691428527832032,998.5443878173828,15.172194480895996,51.76517252510045,0.0,33.26745379565322
1557947352413,0.7482939147949219,-1.4323321931089577,0.5772368994654774,-0.858614501953125,10.706934814453126,998.5443878173828,18.58964729309082,51.76518993727671,0.0,22.04119982655925
1557947352479,2.379152526855469,-1.2854908047796865,0.811917634845219,-0.5165757751464845,8.31445999145508,998.5443878173828,355.1830139160156,51.76521738187023,0.0,27.058637122839194
1557947352548,3.017574920654297,-1.251002428394396,0.48750735268003687,-1.1605366516113282,10.290949859619142,998.5443878173828,351.36212158203125,51.76523291287339,0.0,26.473829701146197
1557947352612,0.9120533752441407,-1.2739028305044748,0.6228958337883315,0.08846603393554688,10.98595458984375,998.5443878173828,349.91424560546875,51.76525234682064,0.0,25.465426634781313
1557947352678,0.20567230224609376,-1.3327965195580433,0.5983920860489083,1.1288026428222657,9.157506866455078,998.5443878173828,340.6474914550781,51.76526720906419,0.0,24.913616938342727
1557947352748,0.6198609924316406,-1.3208238778919672,0.25508107353772447,0.2989283752441406,10.439740447998048,998.5443878173828,333.65020751953125,51.76529962255249,0.0,24.548448600085102
1557947352811,1.9950512695312501,-1.3208238778919672,0.3690710213241566,1.0361453247070314,9.813143463134766,998.5443878173828,326.4276123046875,51.765322152303646,0.0,21.67317334748176
1557947352878,1.4597644042968752,-1.297172609827322,0.13538752137532134,0.38934036254882814,9.770033111572266,998.5796356201172,319.91748046875,51.76533277317056,0.0,21.702617153949575
1557947352947,0.5957611083984375,-1.297172609827322,0.3191481581716358,-0.214354248046875,9.35344940185547,998.5796356201172,315.0244445800781,51.765352181272874,0.0,22.671717284030137
1557947353012,0.9921368408203125,-1.297172609827322,0.21982928285451042,0.7024891662597657,9.965526580810547,998.5796356201172,309.351806640625,51.76536900477004,0.0,24.899584794248348
1557947353077,2.282303924560547,-1.2854908047796865,0.4075268529219904,0.5635780334472656,8.911268920898438,998.5796356201172,306.6210632324219,51.76538500700099,0.0,30.884904701823963
1557947353147,2.512076110839844,-1.2739028305044748,0.2969440426255849,0.8253836059570313,10.153086547851563,998.5796356201172,305.0273742675781,51.76540098668649,0.0,26.848453616444125
1557947353212,2.083217926025391,-1.2854908047796865,0.36726135349098527,0.36898269653320315,11.287876739501954,998.5796356201172,305.0273742675781,51.20592692216599,0.0,26.201360549737576
1557947353278,1.6115487670898438,-1.297172609827322,0.21237054117221252,-0.3046165466308594,11.160341949462891,998.5796356201172,305.0273742675781,51.20594592957813,0.0,24.424797690644485
1557947353347,1.427431640625,-1.3208238778919672,0.4704844449139852,0.07170089721679689,9.240135040283203,998.5796356201172,303.66070556640625,51.20597481098089,0.0,29.722028383790647
1557947353414,0.8412506103515626,-1.3570440658047205,0.21902039284249156,-0.20806732177734377,9.238189086914064,998.5796356201172,303.66070556640625,51.20599181133749,0.0,26.473829701146197
1557947353478,1.0291099548339844,-1.3693223955831573,0.24246984867633511,-0.2636018371582031,10.320737915039063,998.5796356201172,303.66070556640625,51.20602038415913,0.0,25.670263661590603
1557947353547,-0.13726455688476563,-1.3693223955831573,0.292934260787774,-0.14819183349609374,9.991422729492188,998.5796356201172,303.66070556640625,51.206031357652726,0.0,25.024271199844325
1557947353612,0.20462448120117188,-1.3570440658047205,0.11947765702280762,-0.0431103515625,9.570498046875,998.5796356201172,303.66070556640625,51.20606495245512,0.0,23.673559210260187
1557947353679,0.5671705627441407,-1.3570440658047205,0.3335294678911415,1.0756631469726563,8.537645874023438,998.5796356201172,303.66070556640625,44.8981999372478,0.0,23.521825181113627
1557947353748,0.7689509582519531,-1.3570440658047205,0.34603845703892017,0.3585044860839844,7.840246124267579,998.5796356201172,302.56634521484375,44.89821879515552,0.0,24.927603890268376
1557947353811,0.6912625122070313,-1.40679710100182,0.19022131464175995,1.0253677368164062,8.279881896972658,998.5796356201172,302.56634521484375,44.898227215622285,0.0,25.31478917042255
1557947353878,-0.030386810302734376,-1.419508152751374,0.21049172714987663,0.5186714172363281,7.8796142578125,998.6115264892578,299.8756103515625,44.898248608644394,0.0,23.873898263387293
1557947353947,0.5896238708496094,-1.4323321931089577,0.21710124895939467,1.3430072021484376,7.986192626953126,998.6115264892578,298.1012878417969,49.59601105433138,0.0,28.29946695941636
1557947354012,-1.18074462890625,-1.3817061200389897,1.5082931640830524,-0.5183720397949219,13.535901947021484,998.6115264892578,294.62713623046875,49.59602900151526,,26.803355134145633
1557947354078,-0.16600479125976564,-1.3327965195580433,0.25545626212993827,0.7203021240234375,12.256362762451172,998.6115264892578,289.50225830078125,49.596044122017105,0.0,26.99837725867246
1557947354147,-1.533710632324219,-1.297172609827322,0.4995250783072358,1.2323872375488283,10.816506958007814,998.6115264892578,287.1500244140625,48.24990148156251,0.0,26.483600109809316
1557947354212,-0.45879592895507815,-1.2624071916666453,0.6217066905306515,1.5144007873535157,8.850644989013672,998.6115264892578,285.7665710449219,48.24992141242854,0.0,26.042260530844704
1557947354278,0.44143203735351566,-1.2173193021381072,0.4347827121980049,0.10627899169921876,9.031768341064453,998.6115264892578,285.7665710449219,48.2499376924592,0.0,23.80211241711606
1557947354348,0.000149688720703125,-1.1952929958081082,0.2919296781984237,0.9867480468750001,8.1191162109375,998.6115264892578,284.4981994628906,48.24996442040124,0.0,23.283796034387375
1557947354412,0.3399430847167969,-1.2062641136291117,0.24448857789327658,1.5904426574707031,7.833510131835938,998.6115264892578,284.4981994628906,48.24998409597403,0.0,22.479732663618066
1557947354478,1.232237548828125,-1.2062641136291117,0.30096656430339647,1.2605287170410158,8.510701904296875,998.6115264892578,284.4981994628906,48.24999658135519,0.0,27.520484478194387
1557947354547,1.5681390380859377,-1.251002428394396,0.7230690196395412,1.4653028869628908,11.199859771728516,998.6115264892578,285.50946044921875,48.250015290785555,0.0,26.22214022966295
1557947354612,1.3939013671875,-1.3089497776036754,0.3973666305264675,0.8940907287597657,11.991413726806641,998.6115264892578,285.50946044921875,48.25001341682591,0.0,25.987905067631154
1557947354678,2.092798004150391,-1.3208238778919672,0.190964922665947,1.2338841247558594,11.370804290771485,998.6115264892578,284.3213806152344,42.06592446849048,0.0,25.526682161121933
1557947354747,0.7743397521972657,-1.3208238778919672,0.8453359042362965,1.7841398620605469,8.30832275390625,998.6115264892578,282.9595031738281,42.06594771300082,0.0,23.99673721481038
1557947354811,1.3933026123046877,-1.2624071916666453,0.29750300075056596,1.106349334716797,8.075706481933594,998.6115264892578,279.89459228515625,42.06596295127296,0.0,22.648178230095365
1557947354878,0.95082275390625,-1.2284598597433076,0.22150973350990677,2.0414547729492187,8.225694580078125,998.6357879638672,279.89459228515625,42.06598009759952,0.0,20.606978403536118
1557947354947,1.4135105895996094,-1.2173193021381072,0.19751381965570314,1.1472143554687502,8.18572769165039,998.6357879638672,279.89459228515625,42.06599701144276,0.0,20.969100130080562
1557947355012,0.7803273010253907,-1.1844046796653722,0.3139985336039943,2.049537963867188,9.070837097167969,998.6357879638672,279.89459228515625,42.06602094132798,0.0,30.21189299069938
1557947355078,1.1154803466796877,-1.1522242739162223,0.7897645678896551,1.5558645629882812,11.276051330566407,998.6357879638672,278.3966979980469,42.066036426470326,0.0,30.03029470553618
1557947355148,-0.4555027770996094,-1.1001357627677681,0.569532180721203,1.046473846435547,12.797786865234375,998.6357879638672,275.3904724121094,42.066057706297364,0.0,26.893088591236204
1557947355212,0.26734405517578125,-1.0697621137242495,0.12411453041880713,1.1472143554687502,12.75632308959961,998.6357879638672,272.3927001953125,42.06606735193771,0.0,28.779469516291883
1557947355278,0.060474243164062504,-1.0205185947044002,0.5777368025771376,1.7842895507812502,10.445877685546876,998.6357879638672,271.16876220703125,42.424241669356995,0.0,25.352941200427708
1557947355347,0.7315287780761719,-1.0108684246706807,0.4234993229789469,1.7465679931640625,9.437574462890625,998.6357879638672,271.16876220703125,42.424257342381765,0.0,22.96665190261531
1557947355414,1.0256671142578127,-0.9822992724739101,0.3980922276149922,1.2606784057617189,8.372090148925782,998.6357879638672,269.9047546386719,42.42426858793403,0.0,22.25309281725863
1557947355481,0.8446934509277344,-0.9729005744716603,0.150910383980038,1.052611083984375,9.242230682373048,998.6357879638672,269.9047546386719,42.42428418142433,0.0,26.434526764861875
1557947355547,0.8913963317871094,-0.9822992724739101,0.4349881173597029,0.30267059326171875,10.716365203857423,998.6357879638672,271.5900573730469,42.424305845029764,0.0,26.99837725867246
1557947355612,0.8894503784179688,-1.0205185947044002,0.16888551841733182,0.5545967102050782,10.986703033447267,998.6357879638672,273.05889892578125,42.4243234405331,0.0,24.771212547196626
1557947355678,1.6601976013183595,-1.0400147703301974,0.2903503697677587,-0.2731819152832031,11.054212646484375,998.6357879638672,275.31439208984375,42.42433765163502,0.0,27.31588765186739
1557947355748,1.093027038574219,-1.0697621137242495,0.287175461913013,0.3591032409667969,9.99531463623047,998.6357879638672,275.31439208984375,42.42436322207255,0.0,26.263403673750425
1557947355811,0.7812254333496094,-1.0597780251516273,0.14485841015173384,0.22962249755859376,9.766141204833986,998.6357879638672,278.1334533691406,42.42437153439553,0.0,25.670263661590603
1557947355878,-0.09624984741210937,-1.0498625562865442,0.3662058685235032,0.219144287109375,8.998238067626954,998.6492919921875,279.2218933105469,42.42438078529855,0.0,25.490032620257878
1557947355947,1.064735870361328,-1.0302337495376122,0.24322049133865728,0.04834945678710938,8.863368530273437,998.6492919921875,279.2218933105469,42.42438258818612,0.0,23.384564936046047
1557947356012,0.7033872985839844,-1.0400147703301974,0.10618128796751515,0.326920166015625,9.285939788818359,998.6492919921875,279.2218933105469,42.4243807992089,0.0,26.042260530844704
1557947356078,0.14025833129882814,-1.0697621137242495,0.18185305056311826,0.4206253051757813,9.587861938476562,998.6492919921875,279.2218933105469,42.42437927215999,0.0,26.963563887333322
1557947356147,0.30566436767578126,-1.0697621137242495,0.21536932277308718,0.32841705322265624,10.351124725341798,998.6492919921875,277.7415771484375,42.424382177010536,0.0,26.314437690131722
1557947356212,0.7149133300781251,-1.0798157783881723,0.30665667457466295,1.4961387634277346,10.183323669433594,998.6492919921875,277.7415771484375,42.424379115648165,0.0,27.226339225338123
1557947356279,-0.9542655944824219,-1.0597780251516273,0.40814606171864043,1.0419831848144532,9.740394744873047,998.6492919921875,276.1827087402344,42.4243800406226,0.0,25.84331224367531
1557947356347,-0.24638763427734375,-1.0205185947044002,0.3452951255202574,1.6673826599121095,8.637188873291016,998.6492919921875,272.8377685546875,42.42437749069029,0.0,26.314437690131722
1557947356413,0.07679031372070313,-1.0205185947044002,0.18036064707050112,1.311273193359375,9.500743103027345,998.6492919921875,271.2174072265625,42.424378158991054,0.0,26.522463410033232
1557947356478,-0.07679031372070313,-1.0400147703301974,0.15280818023482118,1.3480966186523438,9.969268798828125,998.6492919921875,268.5975341796875,42.42437839047794,0.0,24.377505628203878
1557947356548,0.3661386108398438,-1.0302337495376122,0.19167956502633085,1.5497273254394532,9.21364013671875,998.6492919921875,266.9187927246094,42.42437941490684,0.0,22.380461031287954
1557947356612,0.27767257690429686,-1.0205185947044002,0.21163171712462575,1.3593232727050781,8.530011749267578,998.6492919921875,266.9187927246094,42.42437816868721,0.0,23.69215857410143
1557947356678,0.4739144897460938,-1.0498625562865442,0.06629139492228658,1.2340338134765625,8.803043975830079,998.6492919921875,266.9187927246094,42.42437928505992,0.0,23.54108439147401
1557947356748,0.7689509582519531,-1.0400147703301974,0.2373351037621274,1.3693524169921876,7.907755737304688,998.6492919921875,268.17364501953125,56.20998007254697,0.0,20.755469613925307
1557947356811,0.25956024169921876,-1.0302337495376122,0.27663538358012396,0.6167175292968751,8.844657440185546,998.6492919921875,269.7921447753906,56.20999857601786,0.0,25.55094448578319
1557947356878,1.0255174255371093,-1.0697621137242495,0.7187010405689045,0.8141569519042969,11.463311920166015,998.6601257324219,272.5345153808594,56.21002021629873,0.0,25.70542939881897
