timestamp,AmbientLightSensor,DecibelSource,PitchSensor,LinearAccelerometerSensor,AccX,AccY,AccZ,BarometerSensor,CompassSensor,MagneticRotationSensor
1557947616505,,,,,,,,1002.970703125,,
1557947616516,,16.729351734346935,0.0,,,,,,,
1557947616556,,14.216076571369303,,,,,,,,
1557947616561,4.0,,,0.4360427770343804,0.05746259540319443,2.0375277996063232,9.387951850891113,,239.10345236986154,37.26816168554091
1557947616573,4.0,,,,,,,,,
1557947616588,,,,,0.1652049571275711,,,,,
1557947616589,,,,0.6204150348161083,,2.174001455307007,9.18443775177002,,239.64206742743045,36.03862713302131
1557947616594,,,,,,,,1002.97265625,,
1557947616595,,11.69559148467237,,,,,,,,
1557947616641,,11.941586633488178,0.0,,,,,,,
1557947616647,,,,1.3093577873172921,0.25858166813850403,2.0830190181732178,8.358413696289062,,244.99597951023662,35.52172216219528
1557947616675,,12.788572511876652,,,,,,,,
1557947616688,4.0,,,,,,,,,
1557947616694,,,,,,,,1002.96923828125,,
1557947616706,,,,1.2871608231816185,0.241821750998497,2.051893472671509,8.32249927520752,,243.94843339723178,35.872675056899716
1557947616707,5.0,,,,,,,,,
1557947616715,,13.6265811225136,0.0,,,,,,,
1557947616756,,16.406290184268876,,,,,,,,
1557947616766,,,,1.8771940745528624,0.2849186956882477,2.413429021835327,7.673650741577148,,261.9897906935518,35.86841035443397
1557947616794,,,,,,,,1002.968505859375,,
1557947616795,,14.196635818328714,0.0,,,,,,,
1557947616804,5.0,,,,,,,,,
1557947616826,,,,1.2361417271302721,0.17957061529159546,2.291321039199829,8.274613380432129,,254.14765435648832,35.54193628634069
1557947616836,,15.18304993767577,,,,,,,,
1557947616875,,14.945820748692299,0.0,,,,,,,
1557947616886,,,,,-0.5746259689331055,,,,,
1557947616887,,,,1.533209189627735,,2.418217658996582,8.128562927246094,,237.90260949112496,35.00350791864607
1557947616894,,,,,,,,1002.974365234375,,
1557947616903,5.0,,,,,,,,,
1557947616915,,12.771828670049523,,,,,,,,
1557947616946,,,,0.7963095135807559,-0.5075862407684326,2.727078914642334,9.088666915893555,,235.57814585240783,35.95547222758339
1557947616955,,16.5731824089906,,,,,,,,
1557947616994,,,,,,,,1002.970947265625,,
1557947616995,,16.97722448834324,0.0,,,,,,,
1557947617006,,,,2.938544878889724,-0.9481328129768372,1.9058427810668945,12.174887657165527,,200.93904638236336,36.33434700680038
1557947617020,5.0,,,,,,,,,
1557947617035,,15.46690916924895,,,,,,,,
1557947617066,,,,,-1.2785427570343018,2.4948344230651855,12.249110221862793,,,
1557947617067,,,,3.0435932972888735,,,,,188.86732906214775,35.8997106561822
1557947617076,,40.00723074145648,,,,,,,,
1557947617080,,,169.84375,,,,,,,
1557947617094,,,,,,,,1002.967529296875,,
1557947617116,,39.041567165234,169.84375,,,,,,,
1557947617123,5.0,,,,,,,,,
1557947617126,,,,,-1.5155760049819946,,,,,
1557947617127,,,,1.6481646994538741,,3.004814863204956,10.122993469238281,,162.14866357534603,35.552061976964225
1557947617156,,39.48799032181757,169.84375,,,,,,,
1557947617159,,,158.28531901041669,,,,,,,
1557947617196,,39.31611847298684,,2.29255082385053,-1.6568381786346436,2.784541606903076,11.336891174316406,1002.983154296875,172.57063066381505,35.06095087732394
1557947617197,,,158.28531901041669,,,,,,,
1557947617223,5.0,,,,,,,,,
1557947617236,,39.589652534382715,158.28531901041669,,,,,,,
1557947617247,,,,,-1.441353440284729,2.7773587703704834,9.316123008728027,,239.69646305398044,34.855300728531134
1557947617248,,,,1.3272585567012443,,,,,,
1557947617276,,39.69569996940883,158.28531901041669,,,,,,,
1557947617279,,,158.2177734375,,,,,,,
1557947617297,,,,,,,,1002.983154296875,,
1557947617316,,38.13335741750235,158.2177734375,0.5732758754209003,-0.4980091452598572,2.0973846912384033,9.170072555541992,,255.4029270127208,35.51579425009037
1557947617338,5.0,,,,,,,,,
1557947617355,,26.55760022735416,158.2177734375,,,,,,,
1557947617358,,,160.3271484375,,,,,,,
1557947617366,,,,2.5827861842241586,-0.028731297701597214,2.145270347595215,7.099024772644043,,271.0319434564624,36.37791707808381
1557947617394,,,,,,,,1002.9716796875,,
1557947617396,,15.817809804878891,160.3271484375,,,,,,,
1557947617426,,,,2.3890374590881813,0.1364736706018448,1.671203851699829,7.314509391784668,,251.1478011220729,36.69479595145787
1557947617436,,12.959160009508393,160.3271484375,,,,,,,
1557947617439,5.0,,,,,,,,,
1557947617476,,13.647997815006278,,,,,,,,
1557947617487,,,,1.174864097608756,-0.3735068738460541,1.4700847864151,8.652909278869629,,221.83285460062075,36.43526783266406
1557947617494,,,,,,,,1002.96728515625,,
1557947617515,,16.066153127194692,,,,,,,,
1557947617546,,,,1.0320489274040783,0.27534160017967224,1.671203851699829,9.335277557373047,,225.45640655909597,37.62727157070265
1557947617553,5.0,,,,,,,,,
1557947617556,,29.668823585304246,0.0,,,,,,,
1557947617594,,,,,,,,1002.96728515625,,
1557947617595,,41.753569007971514,,,,,,,,
1557947617606,,,,1.6121579894270708,-0.3016786277294159,1.223474383354187,10.774236679077148,,194.7086297837477,38.01983439042716
1557947617636,,38.4015341041271,,,,,,,,
1557947617639,,,160.7177734375,,,,,,,
1557947617661,5.0,,,,,,,,,
1557947617666,,,,2.5656473323765407,-0.45251792669296265,1.5083931684494019,12.052779197692871,,193.65529167032673,38.857308397849664
1557947617675,,41.39684635116435,160.7177734375,,,,,,,
1557947617694,,,,,,,,1002.98095703125,,
1557947617716,,41.04316422600285,160.7177734375,,,,,,,
1557947617719,,,159.1552734375,,,,,,,
1557947617726,,,,,-0.8810931444168091,1.2617827653884888,12.026442527770996,,184.78366824042382,37.976019422498446
1557947617727,,,,2.453395950029687,,,,,,
1557947617755,,34.391377502518125,159.1552734375,,,,,,,
1557947617772,5.0,,,,,,,,,
1557947617790,,,,1.7547654254353267,0.33280420303344727,1.9130256175994873,11.11182975769043,,223.56484030997422,38.20662263094135
1557947617795,,37.98549022779411,159.1552734375,,,,,1002.993896484375,,
1557947617840,,36.740500622387195,,,,,,,,
1557947617841,,,159.1552734375,,,,,,,
1557947617847,,,,1.329143582365822,0.5315290093421936,1.3862850666046143,8.849239349365234,,229.5718960623521,37.878299810538195
1557947617848,,,171.25,,,,,,,
1557947617874,5.0,,,,,,,,,
1557947617876,,23.356875495895054,171.25,,,,,,,
1557947617895,,,,,,,,1002.993896484375,,
1557947617907,,,,2.4845129010776614,-0.014365648850798607,1.1061549186706543,7.285778045654297,,226.6396821912873,37.89231418570859
1557947617916,,15.761924299802537,171.25,,,,,,,
1557947617955,,19.130144726321227,,,,,,,,
1557947617967,,,,,-0.19872480630874634,1.0127782821655273,7.309720993041992,,215.67530246007084,37.6330097248456
1557947617968,,,,2.494059275328828,,,,,,
1557947617989,5.0,,,,,,,,,
1557947617995,,,,,,,,1003.001220703125,,
1557947617996,,16.65808518960444,0.0,,,,,,,
1557947618027,,,,2.813343684492308,0.282524436712265,1.0750293731689453,7.101418972015381,,226.2047220845625,37.381637417182326
1557947618037,,20.228742458271256,,,,,,,,
1557947618076,,20.943697059170347,,,,,,,,
1557947618088,,,,,-0.4357580244541168,0.9457385540008545,,,,
1557947618089,,,,1.1162078937479005,,,9.744698524475098,,204.5236252814343,37.47680915792765
1557947618090,5.0,,,,,,,,,
1557947618095,,,,,,,,1003.00634765625,,
1557947618116,,20.333667613107806,0.0,,,,,,,
1557947618147,,,,2.7861112479449366,-1.113337755203247,2.106961727142334,12.330514907836914,,198.01520632322092,36.71303788230812
1557947618155,,21.201447366396845,,,,,,,,
1557947618194,,,,,,,,1003.00634765625,,
1557947618195,,18.454074366984955,0.0,,,,,,,
1557947618204,5.0,,,,,,,,,
1557947618207,,,,1.2822930811924058,-0.49322059750556946,2.70074200630188,10.49171257019043,,231.1466508170119,36.50609331683768
1557947618236,,14.653845377375136,,,,,,,,
1557947618267,,,,2.4978483477601685,-0.6727912425994873,2.008796453475952,12.086298942565918,,198.45983797781037,34.97897121444422
1557947618275,,16.393825764752208,0.0,,,,,,,
1557947618294,,,,,,,,1003.01708984375,,
1557947618307,5.0,,,,,,,,,
1557947618315,,33.97168820961018,,,,,,,,
1557947618327,,,,,-0.4668835997581482,2.269772529602051,8.327287673950195,,,
1557947618328,,,,1.7544470550123628,,,,,255.04083136406172,34.26404528433528
1557947618355,,17.618034434162006,,,,,,,,
1557947618390,,,,1.5681685810259194,-1.7143007516860962,1.8268316984176636,9.086273193359375,,131.1130353076168,34.250122115470226
1557947618395,,,,,,,,1003.02685546875,,
1557947618396,,14.994501686414361,0.0,,,,,,,
1557947618409,5.0,,,,,,,,,
1557947618436,,36.853750777808926,,,,,,,,
1557947618447,,,,1.7053625125272633,-1.2019259929656982,1.6065584421157837,8.260248184204102,,210.10525587116877,33.275991189731954
1557947618475,,21.800826174943108,,,,,,,,
1557947618481,,,37.153494698660715,,,,,,,
1557947618495,,,,,,,,1003.02685546875,,
1557947618507,6.0,,,1.844353657841047,-1.209108829498291,1.6759923696517944,8.114197731018066,,286.1719729971444,32.78202495009955
1557947618510,6.0,,,,,,,,,
1557947618516,,14.723102441036637,37.153494698660715,,,,,,,
1557947618556,,16.429768047689745,37.153494698660715,,,,,,,
1557947618567,,,,,-1.0654523372650146,1.3958622217178345,8.985713005065918,,,
1557947618568,,,,0.9532225512002427,,,,,243.33034225848064,33.289456242354326
1557947618597,,15.220729284584788,,,,,,1003.022705078125,,
1557947618618,6.0,,,,,,,,,
1557947618636,,,,,-0.5075862407684326,1.3096683025360107,,,,
1557947618637,,,,0.7151246066319904,,,8.997684478759766,,241.74401716336683,32.46099831877482
1557947618638,,16.359804193083612,,,,,,,,
1557947618676,,13.16376918133561,0.0,,,,,,,
1557947618700,,,,,-1.1564347743988037,-0.26815879344940186,12.368824005126953,,196.54332787783983,32.28223046109254
1557947618701,,,,3.2810370966550293,,,,1003.038330078125,,
1557947618716,,15.408060014955511,,,,,,,,
1557947618733,6.0,,,,,,,,,
1557947618756,,15.554330968751149,0.0,2.7333651176403433,-1.8795057535171509,1.5586729049682617,12.07432746887207,,201.63832114958916,32.33688178746636
1557947618797,,17.341091989792673,,,,,,,,
1557947618802,,,,,,,,1003.038330078125,,
1557947618807,,,,,-0.4908263385295868,,,,,
1557947618808,,,,1.4696538862845194,,0.8786988258361816,11.109435081481934,,223.09709529523343,32.17398909667094
1557947618837,,13.415601294326082,0.0,,,,,,,
1557947618845,6.0,,,,,,,,,
1557947618867,,,,,-0.79011070728302,0.37590113282203674,,,,
1557947618868,,,,,,,10.285804748535156,,213.24032636058297,32.10655882887249
1557947618869,,,,0.8404889134862145,,,,,,
1557947618876,,16.286437433337543,,,,,,,,
1557947618895,,,,,,,,1003.041259765625,,
1557947618917,,16.58054682180972,,,,,,,,
1557947618934,,,,,-0.011971374042332172,1.4198049306869507,7.946598052978516,,264.8310196146829,
1557947618935,,,,2.0702288916637683,,,,,,31.81590075766722
1557947618956,6.0,,,,,,,,,
1557947618957,,12.39931898058633,0.0,,,,,,,
1557947618996,,14.002873132289631,,,,,,,,
1557947619004,,,,,0.14605076611042023,,,,,
1557947619005,,,,1.7658270661172488,,1.2378400564193726,8.238699913024902,1003.051513671875,267.49732056098077,30.715839433707647
1557947619045,,16.433463504027102,0.0,,,,,,,
1557947619048,,,,,,,,,276.7838301716377,30.520247884071203
1557947619049,,,,3.497262429055141,0.45251792669296265,0.541106104850769,6.390319347381592,,,
1557947619070,6.0,,,,,,,,,
1557947619076,,18.14101060138941,,,,,,,,
1557947619095,,,,,,,,1003.051513671875,,
1557947619112,,,,3.038384604664027,-0.03591412305831909,0.47646069526672363,6.790163516998291,,254.960091697883,29.537372333342734
1557947619116,,16.966940994559746,0.0,,,,,,,
1557947619156,,16.790455538295046,,,,,,,,
1557947619167,,,,,-1.6305011510849,,,,,
1557947619168,,,,1.5407453137941909,,1.903448462486267,9.23232364654541,,279.53548799199325,29.286575741845674
1557947619172,6.0,,,,,,,,,
1557947619196,,16.048331636052623,,,,,,1003.03369140625,,
1557947619237,,,,5.99196149854934,-4.805309772491455,2.7127132415771484,13.769474029541016,,92.54587355533039,29.645403188201733
1557947619240,,22.41544221887135,0.0,,,,,,,
1557947619277,6.0,26.0171209637938,,,,,,,,
1557947619296,,,,4.8084412340633245,-2.877918243408203,1.5083931684494019,14.07354736328125,1003.048828125,200.70612327128754,29.059456304634775
1557947619317,,18.715312386055267,0.0,,,,,,,
1557947619348,,,,4.069894018644471,-3.909850835800171,1.6137412786483765,12.85486125946045,,174.0532598269497,28.562835334034745
1557947619356,,17.482144046357693,,,,,,,,
1557947619377,6.0,,,,,,,,,
1557947619396,,,,,,,,1003.048828125,,
1557947619397,,16.57014637024481,0.0,,,,,,,
1557947619414,,,,2.075936103991456,-2.913832426071167,2.4996228218078613,9.75188159942627,,334.2110566752969,28.786870979960298
1557947619437,,18.63579100952551,,,,,,,,
1557947619469,,,,2.652429233797108,-1.4437477588653564,1.4629019498825073,6.993676662445068,,290.53983799023257,29.193621464303664
1557947619476,,14.134936379127701,0.0,,,,,,,
1557947619496,6.0,,,,,,,1003.063232421875,,
1557947619516,,15.087434202829687,,,,,,,,
1557947619537,,,,0.6412720087896006,-2.7055306434631348,1.0151724815368652,9.30415153503418,,255.34982912211308,29.510302015806086
1557947619556,,14.551816328647035,,,,,,,,
1557947619593,,,,,-2.238646984100342,2.264983892440796,6.438204765319824,,,
1557947619594,,,,3.246172925807497,,,,,315.5988048473905,29.28909566684658
1557947619596,,,,,,,,1003.0703125,,
1557947619617,6.0,,,,,,,,,
1557947619636,,20.23119421959555,,,,,,,,
1557947619648,,,,1.8034130401882753,-3.1101629734039307,1.3407938480377197,8.099831581115723,,243.19705794701702,29.259951229876176
1557947619676,,53.912499781299054,0.0,,,,,,,
1557947619696,,,,,,,,1003.0703125,,
1557947619708,,,,2.237042628591921,-2.293715238571167,1.4940274953842163,11.703215599060059,,249.56522580081344,29.074255081723614
1557947619717,,53.12934637430263,,,,,,,,
1557947619728,6.0,,,,,,,,,
1557947619756,,21.108663571251313,,,,,,,,
1557947619761,,,57.9485599578373,,,,,,,
1557947619768,,,,2.740516609997621,-3.5866236686706543,0.7925049662590027,11.475759506225586,,224.6727516348637,29.696665773984396
1557947619796,,16.738282733352033,57.9485599578373,,,,,,,
1557947619797,,,,,,,,1003.07763671875,,
1557947619829,,,,,-2.106961727142334,-0.7925049662590027,10.97296142578125,,219.5776217593309,
1557947619830,,,,2.782638888804266,,,,,,29.6486818439629
1557947619836,,18.763232479809094,57.9485599578373,,,,,,,
1557947619845,6.0,,,,,,,,,
1557947619876,,51.037851587292195,57.9485599578373,,,,,,,
1557947619898,,,,2.6200264635278363,-3.471698522567749,-0.39984390139579773,10.71198558807373,,212.73722828669815,29.833638044353364
1557947619899,,,,,,,,1003.084716796875,,
1557947619916,,17.7037604498324,,,,,,,,
1557947619945,6.0,,,,,,,,,
1557947619949,,,,0.7647404524003593,-2.858764171600342,1.0175668001174927,9.23232364654541,,223.5856040850511,30.583818005316967
1557947619955,,16.264148608245947,,,,,,,,
1557947619958,,,186.2353515625,,,,,,,
1557947619995,,44.656771277844875,186.2353515625,,,,,,,
1557947619996,,,,,,,,1003.08740234375,,
1557947620008,,,,,-2.4613144397735596,,,,,
1557947620009,,,,1.8199366889673292,,0.08140534162521362,10.941835403442383,,224.65090868989796,31.966544263709473
1557947620036,,42.706805258696654,186.2353515625,,,,,,,
1557947620058,6.0,,,,,,,,,
1557947620069,,,,2.1536657354749114,-4.0199875831604,0.6153286099433899,10.518049240112305,,216.7391180836787,32.10297125525188
1557947620076,,14.998864889326498,,,,,,,,
1557947620096,,,,,,,,1003.0908203125,,
1557947620116,,20.70301795198013,,,,,,,,
1557947620136,,,,,-2.2410411834716797,1.331216812133789,6.45257043838501,,224.68102982413774,33.167953412019145
1557947620137,,,,2.9639770688548293,,,,,,
1557947620156,,22.115240227127742,0.0,,,,,,,
1557947620158,6.0,,,,,,,,,
1557947620195,,,,,-1.8818999528884888,0.8523618578910828,7.369577884674072,,215.7196440481626,34.795912547160285
1557947620196,,16.214989295491506,,2.4055862502131067,,,,1003.084228515625,,
1557947620236,,12.859755177856112,0.0,,,,,,,
1557947620249,,,,2.991077984312637,-1.8866885900497437,1.0175668001174927,6.622564315795898,,207.3998999031968,35.588952669327185
1557947620258,6.0,,,,,,,,,
1557947620277,,16.002590118288694,,,,,,,,
1557947620297,,,,,,,,1003.087890625,,
1557947620309,,,,3.1996810634938373,-4.522785186767578,0.5339232683181763,6.737489223480225,,186.01946802733255,37.180155624466146
1557947620316,,21.143881758956987,0.0,,,,,,,
1557947620356,,24.48705443752289,,,,,,,,
1557947620366,6.0,,,,,,,,,
1557947620369,,,,,-4.764606952667236,-0.967287003993988,,,,
1557947620370,,,,4.043056026382853,,,8.600234985351562,,189.7081253489763,38.65424978953009
1557947620396,,18.860716655533412,,,,,,,,
1557947620397,,,,,,,,1003.094482421875,,
1557947620432,,,,,-5.727105140686035,-0.3016786277294159,5.40148401260376,,185.87686733784108,
1557947620433,,,,3.6740056775277115,,,,,190.5175710675145,39.33520362730508
1557947620436,,20.087546219015863,0.0,,,,,,,
1557947620476,,21.736899399866093,,,,,,,,
1557947620479,6.0,,,,,,,,,
1557947620500,,,,,-4.6017961502075195,-1.9249969720840454,5.2817702293396,,,
1557947620501,5.0,,,5.2503872683150865,,,,1003.100341796875,192.46933860398065,41.592985537887216
1557947620516,,17.69631824283963,0.0,,,,,,,
1557947620550,,,,4.498919251255938,-10.87240219116211,-1.2593885660171509,8.087860107421875,,193.72062925992702,41.905865346787735
1557947620556,,21.40463860418816,,,,,,,,
1557947620579,5.0,,,,,,,,,
1557947620597,,21.74710353339296,0.0,,,,,,,
1557947620599,,,,,,,,1003.10009765625,,
1557947620611,,,,0.5859673556033076,-8.169265747070312,-0.31125572323799133,6.033572673797607,,197.53579534537766,40.87660361598188
1557947620636,,14.800737864626594,,,,,,,,
1557947620676,,18.737527999088563,,,,,,,,
1557947620681,,,,,-8.16208267211914,,,,,
1557947620682,7.0,,,1.9151095893319006,,-0.9050358533859253,6.93142557144165,,198.69791105152035,40.43403447282995
1557947620705,,,,,,,,1003.103515625,,
1557947620717,,17.70292488248739,0.0,,,,,,,
1557947620734,,,,,-10.338479042053223,-0.6177229285240173,,,,
1557947620735,,,,3.0921978380243433,,,6.670449733734131,,196.1943735131439,39.19566274363661
1557947620756,,28.653024332778184,,,,,,,,
1557947620796,,18.965755793953416,0.0,,,,,,,
1557947620802,7.0,,,3.2789646000790826,-9.004867553710938,-0.3232271075248718,6.6177754402160645,1003.107666015625,201.09838103532138,39.134259863653874
1557947620838,,16.13203992654507,,,,,,,,
1557947620853,,,,,-9.99370288848877,-0.5746259689331055,8.51404094696045,,215.26375624182094,38.74481086994934
1557947620867,,,,4.842413736420891,,,,,,
1557947620876,,19.096263660268022,0.0,,,,,,,
1557947620899,,,,,,,,1003.115234375,,
1557947620908,7.0,,,,,,,,,
1557947620912,,,,5.016322577621857,-10.838882446289062,1.4221992492675781,5.715134143829346,,212.56568125550416,37.49203088615315
1557947620917,,17.782743322838307,,,,,,,,
1557947620956,,15.27375591583308,,,,,,,,
1557947620974,,,,3.439212164596763,-8.63136100769043,-0.16759923100471497,3.227482557296753,,194.64602426981537,36.9534732928428
1557947620996,,19.105348688654015,0.0,,,,,,,
1557947621000,,,,,,,,1003.114990234375,,
1557947621016,7.0,,,,,,,,,
1557947621036,,17.06289020588283,,,-11.71279239654541,,,,,
1557947621037,14.0,,,7.293163589138766,,2.794118642807007,2.885101079940796,,159.1501968693321,35.900761903248885
1557947621076,,21.47546634396666,0.0,,,,,,,
1557947621101,,,,4.112748882334129,-6.9912824630737305,-5.458946704864502,3.8547823429107666,,184.40531674154022,36.648459297135
1557947621102,,,,,,,,1003.11669921875,,
1557947621116,,18.913016244358296,,,,,,,,
1557947621123,14.0,,,,,,,,,
1557947621153,,,,,-8.016032218933105,1.4652961492538452,5.435003757476807,,,
1557947621154,,,,3.431234024094041,,,,,203.49937011349925,38.39709436980886
1557947621156,,25.325854003972243,0.0,,,,,,,
1557947621195,,20.703101712572213,,,,,,,,
1557947621200,,,,,,,,1003.118896484375,,
1557947621213,1.0,,,5.317787859773801,-12.220378875732422,0.7206767201423645,6.986494064331055,,208.54324624950027,42.40403985464348
1557947621230,1.0,,,,,,,,,
1557947621236,,19.904944003321624,,,,,,,,
1557947621275,,,,3.5936857798270094,-10.240313529968262,-4.1708269119262695,1.302485466003418,,189.23222508836648,44.28593362568977
1557947621276,,24.825592426065285,0.0,,,,,,,
1557947621300,,,,,,,,1003.11376953125,,
1557947621315,,21.509825705840335,,,,,,,,
1557947621330,1.0,,,,,,,,,
1557947621333,,,,1.978764570113885,-9.21316909790039,-1.3096683025360107,-0.39266106486320496,,195.11837283205682,45.21902622488737
1557947621355,,22.90333734422572,0.0,,,,,,,
1557947621395,,17.65591690048566,,,,,,,,
1557947621435,0.0,19.47224152359158,0.0,3.4858648425113024,-12.598673820495605,-0.08140534162521362,3.009603500366211,1003.108642578125,217.96983620984497,46.74488990756855
1557947621465,,,,2.3571387802848403,-10.21397590637207,-2.7151076793670654,-0.11971373856067657,,197.68655128073829,45.44777179581557
1557947621466,0.0,,,,,,,,,
1557947621475,,23.790258200099817,,,,,,,,
1557947621511,,,,,,,,1003.1083984375,,
1557947621512,,,,4.2991094154903085,-8.427846908569336,-5.45176362991333,0.014365648850798607,,194.07914588946096,45.75313598005699
1557947621515,,16.78818668564929,,,,,,,,
1557947621556,,19.338423803727665,0.0,,,,,,,
1557947621568,0.0,,,,,,,,,
1557947621584,,,,2.5365066575937334,-7.094236373901367,-2.695953369140625,0.7446194887161255,,193.95603855986064,45.21285732084427
1557947621595,,14.519412608072306,,,,,,,,
1557947621602,,,,,,,,1003.10791015625,,
1557947621634,,,,7.668613711811694,-16.338531494140625,-0.2897072434425354,2.6863763332366943,,202.77194130651458,48.50022989019595
1557947621635,,16.984083082530802,0.0,,,,,,,
1557947621675,,20.41128500777049,,,,,,,,
1557947621706,0.0,,,6.306178184985043,-6.780586242675781,-8.961771011352539,1.3599480390548706,1003.116943359375,198.3870145008798,49.19037747912387
1557947621715,,18.31519370911949,0.0,,,,,,,
1557947621755,,19.42781131841376,,,,,,,,
1557947621757,,,,10.08142017048236,-18.105506896972656,-0.9984126091003418,1.8268316984176636,,211.252891576271,50.22544583088473
1557947621795,,20.81389359606725,,,,,,,,
1557947621824,,,,1.4570419679303768,-8.142929077148438,-5.6265459060668945,-0.6703969240188599,1003.13232421875,191.1396783574976,51.456985978401896
1557947621835,,20.94260729330292,0.0,,,,,,,
1557947621841,0.0,,,,,,,,,
1557947621875,,19.281774702234134,,,,,,,,
1557947621883,,,,,-9.459779739379883,-5.45176362991333,0.20830190181732178,,204.89781036492434,52.04466493230262
1557947621884,,,,1.5058377631748037,,,,,,
1557947621901,,,,,,,,1003.13623046875,,
1557947621915,,21.047390434845997,0.0,,,,,,,
1557947621934,,,,3.099078435200047,-8.408693313598633,-6.888328552246094,-3.1388943195343018,,176.3801140318763,53.30300195481508
1557947621955,,20.42662108602318,,,,,,,,
1557947621963,0.0,,,,,,,,,
1557947621995,,19.356306332571975,0.0,2.412734076652438,-9.51245403289795,-6.565101623535156,-1.4652961492538452,,194.22106356003553,53.04125559261398
1557947622001,,,,,,,,1003.1396484375,,
1557947622035,,19.429833108216087,,,,,,,,
1557947622054,,,,9.644901063054679,0.9960182905197144,-5.34162712097168,-0.18435916304588318,,29.822948671160987,54.087593898352296
1557947622075,,15.717669123332712,,,,,,,,
1557947622083,0.0,,,,,,,,,
1557947622115,,17.39919305604887,0.0,,,,,,,
1557947622117,,,,1.73051724678093,-6.5914387702941895,-4.587430477142334,-2.947352170944214,1003.12841796875,170.821146009808,55.979741076722114
1557947622156,,14.623130935015276,,,,,,,,
1557947622189,,,,2.8707075832455344,-5.399089813232422,-4.132518291473389,-3.407052993774414,,164.33857248741387,55.20537926212534
1557947622190,0.0,,,,,,,,,
1557947622195,,14.221668346586911,0.0,,,,,,,
1557947622213,,,,,,,,1003.12353515625,,
1557947622236,,14.984668422906047,,3.409570038388959,-4.204346656799316,-5.061496734619141,-1.3360053300857544,,182.18412556307362,54.74673426154931
1557947622275,,14.867950051218468,0.0,,,,,,,
1557947622316,,19.056521132423118,,4.129830508691317,-7.75266170501709,-3.557892322540283,-3.905062198638916,1003.12060546875,163.12661006070846,54.28491291320072
1557947622317,0.0,,,,,,,,,
1557947622356,,16.633889260731912,0.0,,,,,,,
1557947622358,,,,3.599863971683378,-8.360807418823242,-6.878751754760742,-5.02079439163208,,156.03718789093705,52.787349162206716
1557947622396,,13.513830046728826,,,,,,,,
1557947622401,,,,,,,,1003.1171875,,
1557947622414,,,,6.522869958002664,-12.78303337097168,-6.560312747955322,-2.293715238571167,,193.29279987069572,51.99161756408366
1557947622422,0.0,,,,,,,,,
1557947622435,,15.179465663894028,,,,,,,,
1557947622474,,,,,1.4006507396697998,-7.489291667938232,,,,
1557947622475,,16.536335828930696,,8.02906288617035,,,-3.596200704574585,,80.04072609076417,49.21806907218245
1557947622476,,,0.0,,,,,,,
1557947622501,,,,,,,,1003.113525390625,,
1557947622515,,21.0407891102148,,,,,,,,
1557947622525,0.0,,,,,,,,,
1557947622534,,,,7.646390833958498,0.42857518792152405,-5.743865489959717,-5.291347503662109,,82.88628535182903,49.01529958347991
1557947622556,,19.40000064256715,0.0,,,,,,,
1557947622594,,,,9.536342373609456,-12.596280097961426,-12.495719909667969,2.5283541679382324,,206.3086815606389,50.8203180481958
1557947622596,,23.929141916854935,,,,,,,,
1557947622601,,,,,,,,1003.125732421875,,
1557947622636,,19.883855215353904,0.0,,,,,,,
1557947622640,0.0,,,,,,,,,
1557947622655,,,,,-8.09264850616455,-5.509226322174072,-1.6233183145523071,,179.46301553640993,48.21865181875561
1557947622656,,,,3.274523279568349,,,,,,
1557947622675,,20.992161771869817,,,,,,,,
1557947622702,,,,,,,,1003.12548828125,,
1557947622714,,,,,-9.526819229125977,,,,,
1557947622715,,20.48124139543485,,3.8481960479536808,,-7.434223175048828,0.21069619059562683,,200.1334392301386,48.20364040015188
1557947622755,0.0,20.9637592598665,0.0,,,,,,,
1557947622775,,,,8.773931419756696,-13.937073707580566,-9.031204223632812,2.7342617511749268,,219.6060216858998,47.71739358219886
1557947622795,,21.965154963461984,,,,,,,,
1557947622802,,,,,,,,1003.13330078125,,
1557947622835,,30.523154291773437,,12.269841532410627,0.011971374042332172,-10.47255802154541,-9.85244083404541,,88.3621094811308,44.24624544098556
1557947622836,,,0.0,,,,,,,
1557947622855,0.0,,,,,,,,,
1557947622875,,33.29364436565762,,,,,,,,
1557947622894,,,,,0.6201171875,-8.791776657104492,0.8571503758430481,,297.7962719455891,42.28297283714117
1557947622895,,,,6.747867388622393,,,,,,
1557947622902,,,,,,,,1003.14208984375,,
1557947622915,,27.392147831762475,0.0,,,,,,,
1557947622955,,28.738337891896677,,,0.541106104850769,-3.9170336723327637,-5.722316741943359,,62.256907907288564,
1557947622956,0.0,,,9.224857699322733,,,,,63.54238366003085,43.058141452547574
1557947622995,,24.09171827060988,,,,,,,,
1557947623002,,,,,,,,1003.14990234375,,
1557947623014,,,,,-24.419208526611328,-5.865973472595215,,,,
1557947623015,,,,25.389679068918067,,,12.167704582214355,,297.0688499687936,45.65779237549037
1557947623035,,25.04567944082373,0.0,,,,,,,
1557947623068,0.0,,,,,,,,,
1557947623075,,21.807277827887113,,,-7.005648136138916,,,,,
1557947623076,,,,9.496761372304771,,-7.723930358886719,-9.864412307739258,,89.64871904527524,47.11853053912034
1557947623102,,,,,,,,1003.1513671875,,
1557947623115,,25.445334621041773,0.0,,,,,,,
1557947623134,,,,,-0.28731298446655273,-9.486116409301758,-3.2777621746063232,,,
1557947623135,,,,4.876272182262575,,,,,92.95010464097925,43.81072372025088
1557947623155,,19.594740535428045,,,,,,,,
1557947623172,0.0,,,,,,,,,
1557947623195,,21.19015610730021,0.0,8.197016885149724,-8.779806137084961,-14.5045166015625,-1.3168511390686035,,155.22416315327374,47.0150820634096
1557947623202,,,,,,,,1003.14892578125,,
1557947623235,,19.331077809827875,,,,,,,,
1557947623256,,,,6.597706552317121,-4.247443675994873,-13.726377487182617,-0.371112585067749,,181.54095396969024,47.50219362013851
1557947623272,0.0,,,,,,,,,
1557947623276,,24.208880554005667,,,,,,,,
1557947623303,,,,,,,,1003.152587890625,,
1557947623314,,,,,-4.431802749633789,-10.790996551513672,,,,
1557947623315,,,,4.519009387748339,,,-0.08379961550235748,,191.79271274404255,47.188234657787426
1557947623316,,26.83579971341807,0.0,,,,,,,
1557947623356,,28.025693516881127,,,,,,,,
1557947623374,0.0,,,,,,,,,
1557947623375,,,,5.083471494370952,-6.838048934936523,-6.399896621704102,-0.9098244309425354,,199.40065555484466,47.13575490899575
1557947623395,,19.315253250433376,0.0,,,,,,,
1557947623402,,,,,,,,1003.161865234375,,
1557947623434,,,,,-0.44054657220840454,,,,,
1557947623435,,26.5933937824107,,5.869565682403497,,-3.622537851333618,-1.8699285984039307,,89.95403533136397,47.687129610931564
1557947623476,,19.024956261365553,0.0,,,,,,,
1557947623478,0.0,,,,,,,,,
1557947623495,,,,7.236014722042596,-1.9561225175857544,-3.284945011138916,1.4581133127212524,,263.10592556620196,46.68470446119337
1557947623502,,,,,,,,1003.16552734375,,
1557947623516,,22.932773478259314,,,,,,,,
1557947623556,,32.32581117786826,,,,,,,,
1557947623566,,,,7.232285001996095,3.969707727432251,-12.890775680541992,-2.9665064811706543,,36.36577129222377,46.584154030739334
1557947623578,0.0,,,,,,,,,
1557947623595,,22.623488312437573,0.0,,,,,,,
1557947623603,,,,,,,,1003.16259765625,,
1557947623615,,,,6.444976908876946,4.288146018981934,-12.256292343139648,-2.76059889793396,,34.897471865967816,47.97651777260567
1557947623635,,19.234578474173237,,,,,,,,
1557947623675,,19.870533754407987,0.0,,,,,,,
1557947623680,,,,,-1.2378400564193726,-8.94261646270752,-2.918621063232422,,105.36966300505605,45.458818682834504
1557947623681,,,,2.7629857805613085,,,,,,
1557947623682,0.0,,,,,,,,,
1557947623702,,,,,,,,1003.166259765625,,
1557947623715,,20.2195769670525,,,,,,,,
1557947623735,,,,12.167996965256211,-10.470163345336914,-9.634561538696289,4.2330780029296875,,297.41589188052194,44.29706782556624
1557947623755,,28.178216103918757,0.0,,,,,,,
1557947623781,0.0,,,,,,,,,
1557947623794,,,,,-14.119038581848145,-8.63375473022461,0.8188419938087463,,,
1557947623795,,31.21448361238339,,13.844340223556554,,,,,343.21661328463455,44.2934124471883
1557947623802,,,,,,,,1003.170166015625,,
1557947623835,,33.49325773121131,,,,,,,,
1557947623862,,,,7.28098437434614,-6.883540153503418,-14.511699676513672,2.7653872966766357,,252.13557624965097,44.78367934087763
1557947623876,,31.828891586537367,,,,,,,,
1557947623879,,,96.7431640625,,,,,,,
1557947623896,0.0,,,,,,,,,
1557947623900,,,,,,,,1003.18017578125,,
1557947623913,,,,9.68688490360767,4.616161823272705,-10.824516296386719,-0.2609759569168091,,6.703440495811151,41.970717049145684
1557947623915,,36.35736255008604,96.7431640625,,,,,,,
1557947623955,,32.92997802000506,96.7431640625,,,,,,,
1557947623956,,,0.0,,,,,,,
1557947623977,,,,10.184781513370705,-0.06464541703462601,-13.774263381958008,-6.107795238494873,,62.78158937895063,42.961130719968146
1557947623995,0.0,33.896743629579,,,,,,,,
1557947624003,,,,,,,,1003.181640625,,
1557947624035,,,,,-3.8835136890411377,,,,,
1557947624036,,29.884879224959953,,6.730867184775081,,-2.2793495655059814,1.2474172115325928,,252.62030111466845,43.829619356835494
1557947624037,,,45.8154296875,,,,,,,
1557947624075,,23.512777535874424,45.8154296875,,,,,,,
1557947624095,0.0,,,,,,,,,
1557947624097,,,,2.89387749870983,-4.5706706047058105,-6.694392204284668,-2.631308078765869,,114.41143327737308,45.16421781819145
1557947624110,,,,,,,,1003.191650390625,,
1557947624115,,28.382871088370475,45.8154296875,,,,,,,
1557947624155,,28.96919082821574,,,,,,,,
1557947624156,,,45.8154296875,,,,,,,
1557947624160,,,,,-6.778192043304443,-7.271412372589111,2.26019549369812,,241.34341290816724,
1557947624161,,,,6.54432442811777,,,,,,46.211256872596266
1557947624196,0.0,28.997088614707465,,,,,,,,
1557947624210,,,,,,,,1003.19775390625,,
1557947624216,,,,12.021971615075119,-2.8300328254699707,-19.630659103393555,2.415823221206665,,235.35060493039805,48.44809605497969
1557947624235,,38.55571173613675,0.0,,,,,,,
1557947624275,,,,6.078766070687263,3.3017048835754395,-9.42386531829834,-4.252232074737549,,49.570651146690295,49.85147630347812
1557947624276,,39.831692113434805,,,,,,,,
1557947624302,,,,,,,,1003.2001953125,,
1557947624305,0.0,,,,,,,,,
1557947624315,,45.66728123172554,,,,,,,,
1557947624316,,,0.0,,,,,,,
1557947624334,,,,4.5527381455100215,-2.542719841003418,-12.062356948852539,-1.6879637241363525,,164.89767811249277,50.45982101172821
1557947624355,,31.286356943102035,,,,,,,,
1557947624394,,,,6.880028013127983,2.5259599685668945,-6.387925148010254,-0.3256213665008545,,22.962122687626163,51.32728907147863
1557947624395,,24.195736448426914,,,,,,,,
1557947624402,,,,,,,,1003.21826171875,,
1557947624408,0.0,,,,,,,,,
1557947624436,,35.46795992374115,0.0,,,,,,,
1557947624457,,,,,2.7031362056732178,-2.0686533451080322,0.3256213665008545,,11.228461311512149,
1557947624458,,,,9.348172879319286,,,,,,50.714196114858254
1557947624476,,54.708771209195355,,,,,,,,
1557947624503,,,,,,,,1003.21826171875,,
1557947624508,0.0,,,,,,,,,
1557947624515,,,,2.664192979587423,-1.9633053541183472,-7.096630573272705,-3.4022645950317383,,106.36503330299115,49.06638983556068
1557947624516,,72.60703012683871,,,,,,,,
1557947624520,,,176.29781087239581,,,,,,,
1557947624556,,76.72587456271094,176.29781087239581,,,,,,,
1557947624575,,,,6.121825660713152,-6.366376876831055,-12.771061897277832,-0.8571503758430481,,184.6952172906722,48.60762833057869
1557947624596,,70.10986249862395,176.29781087239581,,,,,,,
1557947624603,,,,,,,,1003.217041015625,,
1557947624609,0.0,,,,,,,,,
1557947624636,,58.437773046558156,,3.6655628247854013,-1.2689656019210815,-13.05358600616455,0.9553156495094299,,226.95272342132728,46.69996822254813
1557947624675,,70.62635597088102,,,,,,,,
1557947624696,,,,,-1.6376839876174927,-10.525232315063477,-1.2210801839828491,,121.38430509914738,47.1382383846758
1557947624697,,,,2.0785361435394862,,,,,,
1557947624706,,,,,,,,1003.22119140625,,
1557947624709,0.0,,,,,,,,,
1557947624716,,69.13161172231919,,,,,,,,
1557947624718,,,59.599609375,,,,,,,
1557947624756,,56.41716280557571,59.599609375,8.504626641799524,-0.38547825813293457,-17.739181518554688,2.636096477508545,,272.0634386249177,47.48331954543133
1557947624796,,55.03650545613504,59.599609375,,,,,,,
1557947624801,,,86.1328125,,,,,,,
1557947624806,,,,,,,,1003.22119140625,,
1557947624816,,,,,0.9505270719528198,-11.032817840576172,,,,
1557947624817,,,,3.264221766025245,,,2.724684715270996,,307.93306497583177,48.32842647053389
1557947624825,0.0,,,,,,,,,
1557947624836,,40.61550626899113,86.1328125,,,,,,,
1557947624876,,,,,5.3512043952941895,-9.723150253295898,3.6752119064331055,,342.8371792007674,49.911524826692215
1557947624877,,,,7.335219863061579,,,,,,
1557947624878,,36.83567370225706,86.1328125,,,,,,,
1557947624884,,,86.72433035714286,,,,,,,
1557947624906,,,,,,,,1003.222900390625,,
1557947624916,,31.39631032840702,86.72433035714286,,,,,,,
1557947624926,0.0,,,,,,,,,
1557947624937,,,,1.669667435385741,-0.7374366521835327,-8.126168251037598,0.011971374042332172,,189.9600363859447,47.616263960971835
1557947624956,,30.861793820236972,86.72433035714286,,,,,,,
1557947624958,,,0.0,,,,,,,
1557947624995,,33.28758445428512,,,,,,,,
1557947624997,,,,8.29607127404197,-7.240286827087402,-8.157294273376465,5.399089813232422,,297.15926118283704,46.02050867304376
1557947625004,,,,,,,,1003.217529296875,,
1557947625036,,33.38797988217777,,,,,,,,
1557947625047,0.0,,,,,,,,,
1557947625064,,,,,-2.4086403846740723,-6.165257453918457,-0.7781392931938171,,,
1557947625065,,,,3.823747522079598,,,,,109.59838338437268,45.58361402939613
1557947625077,,27.57264731676649,,,,,,,,
1557947625082,,,41.552734375,,,,,,,
1557947625111,,,,,,,,1003.217529296875,,
1557947625116,,23.73133108208098,41.552734375,,,,,,,
1557947625117,,,,,-3.6345090866088867,,,,,
1557947625118,,,,4.585925022608665,,-5.990475654602051,-2.7151076793670654,,66.41087186613947,46.22294152133909
1557947625148,0.0,,,,,,,,,
1557947625156,,21.218162022133747,41.552734375,,,,,,,
1557947625183,,,,,-5.063891410827637,-9.18443775177002,-1.6233183145523071,,,
1557947625184,,,,2.83581441817102,,,,,83.73138465783472,46.28252291423978
1557947625196,,29.546742366972786,,,,,,,,
1557947625204,,,,,,,,1003.223388671875,,
1557947625235,,27.827987352696763,,,,,,,,
1557947625236,,,0.0,7.212644695238763,-7.436617374420166,-12.778244972229004,-6.383136749267578,,58.89134585414314,46.54097356318137
1557947625266,0.0,,,,,,,,,
1557947625278,,22.96320624134827,,,,,,,,
1557947625294,,,,9.812408641219807,0.1652049571275711,-16.190086364746094,0.991229772567749,,263.3753287176348,46.69623036651685
1557947625302,,,,,,,,1003.232421875,,
1557947625316,,20.30553370811721,,,,,,,,
1557947625356,,,,10.625144329212736,-0.7518022656440735,-9.71357250213623,-2.5283541679382324,,281.2984349488544,47.78972519917696
1557947625359,,30.27190300724697,0.0,,,,,,,
1557947625374,0.0,,,,,,,,,
1557947625396,,25.041471003787063,,,,,,,,
1557947625403,,,,,,,,1003.232421875,,
1557947625414,,,,4.200890156102358,-1.3599480390548706,-6.766220569610596,-0.9624984860420227,,132.45198461137107,48.12201939467039
1557947625436,,24.957771020313487,0.0,,,,,,,
1557947625474,0.0,,,,,,,,,
1557947625476,,30.898016155957492,,,,,,,,
1557947625477,,,,5.961535182601747,0.337592750787735,-4.597007751464844,-2.1883671283721924,,61.15913258312747,48.47662093109077
1557947625506,,,,,,,,1003.24853515625,,
1557947625516,,24.127509362018046,0.0,,,,,,,
1557947625537,,,,,0.22266755998134613,-7.474925994873047,0.3016786277294159,,303.0498792853391,
1557947625538,,,,4.445192787958598,,,,,,47.865935489020906
1557947625555,,22.909603411363065,,,,,,,,
1557947625574,0.0,,,,,,,,,
1557947625596,,15.663880492104171,,,,,,,,
1557947625597,,,,1.8183970053084653,-3.720703125,-9.622590065002441,-2.382303476333618,,117.11930275495965,47.40554280602295
1557947625606,,,,,,,,1003.25244140625,,
1557947625636,,20.761031382718933,0.0,,,,,,,
1557947625667,,,,9.899017485598042,-7.055927753448486,-8.813325881958008,-9.09345531463623,,63.809751415091,46.99654942096077
1557947625675,0.0,17.388335688346405,,,,,,,,
1557947625707,,,,,,,,1003.25244140625,,
1557947625716,,23.410417751058205,0.0,,,,,,,
1557947625718,,,,2.5458140591538494,-0.13407939672470093,-10.508472442626953,0.5267404317855835,,241.58436832170696,46.75051217201087
1557947625756,,22.674803651688936,,,,,,,,
1557947625775,0.0,,,,,,,,,
1557947625778,,,,3.7762438209177556,-0.3591412305831909,-12.85486125946045,-0.6823683381080627,,93.84645768651671,46.87766418591036
1557947625795,,20.042799324227186,0.0,,,,,,,
1557947625812,,,,,,,,1003.2451171875,,
1557947625835,,21.311026862643377,,,,,,,,
1557947625841,,,,4.683790850210503,-4.608979225158691,-11.830111503601074,2.6887705326080322,,199.25203063850518,46.923450618457444
1557947625878,,27.4568587294837,,,,,,,,
1557947625889,0.0,,,,,,,,,
1557947625898,,,,6.039849510086505,-7.9178667068481445,-11.684061050415039,-0.2944957911968231,,110.28403192420438,46.22936678062247
1557947625910,,,,,,,,1003.25439453125,,
1557947625915,,30.222202331597433,0.0,,,,,,,
1557947625956,,33.16184854032768,,,,,,,,
1557947625957,,,,1.3576211247931056,-1.2953026294708252,-9.907508850097656,-0.2777358889579773,,141.66547266961138,46.05573494723706
1557947625991,0.0,,,,,,,,,
1557947625995,,34.96120987629185,,,,,,,,
1557947625997,,,0.0,,,,,,,
1557947626008,,,,,,,,1003.25439453125,,
1557947626017,,,,4.610959365880783,-0.8954587578773499,-5.217124938964844,0.821236252784729,,198.95113348480936,45.9809480954819
1557947626035,,24.95490846998019,,,,,,,,
1557947626075,,25.075713502207094,,,,,,,,
1557947626076,,,0.0,,,,,,,
1557947626077,,,,,-4.247443675994873,-4.932206153869629,-3.165231227874756,,,
1557947626078,,,,5.986057294036721,,,,,66.19418411472077,46.66630816311779
1557947626093,0.0,,,,,,,,,
1557947626105,,,,,,,,1003.261474609375,,
1557947626115,,22.345296219661954,,,,,,,,
1557947626137,,,,4.525937669244758,-4.778972625732422,-6.222720146179199,-2.602576732635498,,74.18493853793461,46.5441076843115
1557947626160,,30.346243646611253,,,,,,,,
1557947626195,,24.76522579465367,0.0,,,,,,,
1557947626197,,,,,-7.532388687133789,-7.168458938598633,-2.547508478164673,,70.96949038236767,
1557947626198,,,,3.722392502174721,,,,,,46.52391523088908
1557947626213,0.0,,,,,,,1003.28125,,
1557947626235,,28.591376162464563,,,,,,,,
1557947626263,,,,10.556724278403523,-5.245856285095215,-18.32338523864746,-6.234691619873047,,77.11798569207815,46.80388382509814
1557947626275,,25.092299615654767,0.0,,,,,,,
1557947626303,,,,,,,,1003.28125,,
1557947626314,0.0,,,,,,,,,
1557947626315,,26.595642681442293,,8.56684442278823,-0.766167938709259,-14.947457313537598,-0.4429408311843872,,127.90706745461785,46.90530295600808
1557947626356,,29.167418309708104,,,,,,,,
1557947626357,,,0.0,,,,,,,
1557947626375,,,,3.780970665568454,-2.267378330230713,-8.810931205749512,-1.3647366762161255,,121.35817279538293,47.298193375286665
1557947626395,,29.44770461375763,,,,,,,,
1557947626403,,,,,,,,1003.28466796875,,
1557947626415,0.0,,,,,,,,,
1557947626436,,29.941494956750713,,,,,,,,
1557947626438,,,,6.30012401882597,0.38787251710891724,-6.227508544921875,-0.5123748183250427,,40.58801665220727,47.963497799227234
1557947626475,,20.388268926045527,0.0,,,,,,,
1557947626506,,,,,0.1412622183561325,,,,,
1557947626507,,,,6.612616138844522,,-3.972101926803589,-0.6392713785171509,1003.296630859375,61.00901868554894,47.629909587536446
1557947626516,,14.922344245945299,,,,,,,,
1557947626526,0.0,,,,,,,,,
1557947626560,,23.170181010481116,0.0,,,,,,,
1557947626565,,,,1.5636041173422552,-2.413429021835327,-10.223553657531738,-1.35037100315094,,126.77189001456173,47.171792386266006
1557947626597,,20.267342532472448,,,,,,,,
1557947626609,,,,,,,,1003.296630859375,,
1557947626618,,,,6.7130892304960135,-8.39193344116211,-9.368797302246094,-3.967313289642334,,86.73657910018107,46.82249287375638
1557947626632,0.0,,,,,,,,,
1557947626636,,26.546757488650776,0.0,,,,,,,
1557947626677,,19.845451719486395,,,,,,,,
1557947626678,,,,2.8047529547659034,-2.174001455307007,-7.134938716888428,-1.5658557415008545,,99.07258376014113,46.59114715372418
1557947626712,,,,,,,,1003.295166015625,,
1557947626716,,24.39891876151873,,,,,,,,
1557947626732,0.0,,,,,,,,,
1557947626750,,,,4.321978339272042,-5.114171028137207,-13.09189510345459,0.023942748084664345,,132.62713798244687,48.06823747787867
1557947626759,,23.601396300849295,,,,,,,,
1557947626760,,,0.0,,,,,,,
1557947626795,,24.938838489080734,,,,,,,,
1557947626801,,,,3.789266364522139,-3.3926873207092285,-12.759090423583984,1.6664152145385742,,166.8479430073415,46.75671019024909
1557947626812,,,,,,,,1003.304931640625,,
1557947626836,,21.835296871691867,0.0,,,,,,,
1557947626840,0.0,,,,,,,,,
1557947626869,,,,2.1790262949014796,-3.9242165088653564,-11.317736625671387,0.3902668058872223,,136.10970117607465,46.98260437841296
1557947626878,,22.216537164709067,,,,,,,,
1557947626906,,,,,,,,1003.304931640625,,
1557947626915,,25.3717421822699,,,,,,,,
1557947626916,,,0.0,,,,,,,
1557947626917,,,,,-1.2665714025497437,,,,,
1557947626918,,,,2.960559025633959,,-8.530800819396973,2.506805658340454,,211.1365324735707,47.42589050209805
1557947626943,0.0,,,,,,,,,
1557947626955,,31.176004381493556,,,,,,,,
1557947626978,,,,2.3498656782355694,-0.9960182905197144,-9.699207305908203,1.8771114349365234,,203.85049647835126,48.809546896643255
1557947626996,,35.9954655267012,,,,,,,,
1557947627013,,,,,,,,1003.300048828125,,
1557947627036,,25.234861848305094,,,,,,,,
1557947627039,,,51.8603515625,,,,,,,
1557947627054,,,,,-4.149278163909912,-6.553130149841309,0.9577099084854126,,,
1557947627055,,,,3.353253415964813,,,,,124.4662093960622,48.71146321986632
1557947627056,0.0,,,,,,,,,
1557947627075,,20.625095041083007,51.8603515625,,,,,,,
1557947627102,,,,5.623188659640035,-6.481301784515381,-6.917059898376465,-1.8603515625,,77.24570339936821,48.98870278270946
1557947627106,,,,,,,,1003.3115234375,,
1557947627116,,18.678087581573912,51.8603515625,,,,,,,
1557947627157,,15.146772323599304,,,,,,,,
1557947627161,,,,,-4.388705730438232,,,,,
1557947627162,0.0,,,2.7255537467867947,,-8.004060745239258,-0.651242733001709,,92.03952431140067,49.361441937967264
1557947627195,,19.389755774274814,,,,,,,,
1557947627196,,,0.0,,,,,,,
1557947627213,,,,,,,,1003.3115234375,,
1557947627217,,,,,-5.126142501831055,,,,,
1557947627218,,,,3.7877635499013054,,-6.8356547355651855,-0.4716721475124359,,80.69117183561366,49.44662417441141
1557947627236,,25.23671273877527,,,,,,,,
1557947627262,0.0,,,,,,,,,
1557947627275,,22.953002508137942,,,,,,,,
1557947627277,,,,,-6.318490982055664,-12.964998245239258,-1.1660118103027344,,85.2086794432276,
1557947627278,,,,5.1077284653438255,,,,,,48.7317091234925
1557947627304,,,,,,,,1003.314453125,,
1557947627316,,21.755016234451567,0.0,,,,,,,
1557947627335,,,,,-1.4581133127212524,,,,,
1557947627336,,,,6.760831266678966,,-14.98337173461914,-3.684788942337036,,46.90660416281855,49.13754253945161
1557947627355,,21.56366094766684,,,,,,,,
1557947627374,0.0,,,,,,,,,
1557947627395,,23.931462576347787,0.0,,2.6217308044433594,-18.378454208374023,-0.1364736706018448,,318.61531349809707,
1557947627396,,,,12.066806479077869,,,,,,47.84332993859909
1557947627403,,,,,,,,1003.3203125,,
1557947627435,,20.310166598920016,,,,,,,,
1557947627458,,,,1.3484954874559372,-3.6392977237701416,-8.535589218139648,-2.1787900924682617,,74.92235991167502,46.88734080783849
1557947627475,,18.708025508605484,0.0,,,,,,,
1557947627476,0.0,,,,,,,,,
1557947627506,,,,,,,,1003.31640625,,
1557947627515,,14.36701604839646,,,,,,,,
1557947627517,,,,,1.41022789478302,,,,,
1557947627518,,,,6.502604329622629,,-7.714353561401367,0.1245022863149643,,317.30336393213184,46.806653142308754
1557947627559,,12.690971194726506,,,,,,,,
1557947627576,0.0,,,,,,,,,
1557947627578,,,,7.262517186471166,1.812466025352478,-5.432609558105469,0.7709565162658691,,308.4946260539173,47.28312063452548
1557947627595,,16.28516355380334,,,,,,,,
1557947627596,,,0.0,,,,,,,
1557947627609,,,,,,,,1003.317138671875,,
1557947627636,,22.151184828983283,,,,,,,,
1557947627643,,,,2.7867835214593355,-1.843591570854187,-8.976136207580566,-3.126922845840454,,61.47471464353873,46.071443029367224
1557947627677,,21.690089547969826,0.0,,,,,,,
1557947627679,0.0,,,,,,,,,
1557947627699,,,,,-12.23474407196045,-7.587456703186035,-4.22110652923584,,,
1557947627700,,,,9.982009344770322,,,,,57.478630507352705,46.56452236658452
1557947627712,,,,,,,,1003.31982421875,,
1557947627715,,23.167700517889447,,,,,,,,
1557947627755,,29.9695941367966,,,,,,,,
1557947627756,,,0.0,,,,,,,
1557947627758,,,,,-9.75188159942627,,,,,
1557947627759,,,,6.614729207350234,,-8.557138442993164,-2.729473352432251,,63.45415810652179,45.96650035237376
1557947627780,0.0,,,,,,,,,
1557947627796,,31.978818044378613,,,,,,,,
1557947627812,,,,,,,,1003.327392578125,,
1557947627817,,,,,1.2186858654022217,-15.759117126464844,-7.994483470916748,,19.238202806844924,
1557947627818,,,,11.727596920981536,,,,,,45.94076583127653
1557947627835,,37.55702828068112,,,,,,,,
1557947627838,,,118.0810546875,,,,,,,
1557947627875,,28.913522160798774,,,,,,,,
1557947627876,,,118.0810546875,,,,,,,
1557947627882,,,,7.257237472174868,2.3416006565093994,-9.481328010559082,3.6153550148010254,,263.90473668020246,44.584400142729706
1557947627884,0.0,,,,,,,,,
1557947627915,,33.17898895193555,118.0810546875,,,,,1003.33740234375,,
1557947627937,,,,,,,,,259.40478265875544,
1557947627938,,,,,,,,,,45.02031382237403
1557947627953,,,,6.6862198504589925,1.0654523372650146,-9.955394744873047,4.0798444747924805,,237.3604427351877,
1557947627960,,31.950788945799236,118.0810546875,,,,,,,
1557947627995,,30.878534209331615,,,,,,,,
1557947627996,0.0,,,,,,,,,
1557947627998,,,,,-1.781340479850769,-9.598648071289062,4.249837875366211,,,
1557947627999,,,,3.698598420961786,,,,,181.80868372477642,44.4975542546965
1557947628017,,,,,,,,1003.33935546875,,
1557947628036,,31.030899339428156,0.0,,,,,,,
1557947628057,,,,,-3.2059340476989746,,,,,
1557947628058,,,,1.7940257827411552,,-8.636149406433105,2.76059889793396,,127.65515641764944,44.83609985283889
1557947628077,,32.364604247076464,,,,,,,,
1557947628097,0.0,,,,,,,,,
1557947628107,,,,,,,,1003.33837890625,,
1557947628115,,25.196494444353604,,,,,,,,
1557947628116,,,0.0,,,,,,,
1557947628118,,,,3.216481270331002,-5.3200788497924805,-9.589070320129395,1.9944308996200562,,94.36158372352986,45.348729066092375
1557947628158,,33.72418804050572,,,,,,,,
1557947628177,,,,,-5.4421868324279785,-8.375173568725586,2.3799092769622803,,,
1557947628178,,,,3.7223205094780276,,,,,84.85887813507452,44.863030256881686
1557947628195,,31.477772452139206,,,,,,,,
1557947628209,,,,,,,,1003.349609375,,
1557947628210,0.0,,,,,,,,,
1557947628235,,22.694851467025035,,,,,,,,
1557947628237,,,0.0,,-4.886714935302734,,,,,
1557947628238,,,,,,-8.277008056640625,1.211503028869629,,74.28031529950465,45.26485831717722
1557947628248,,,,3.1829147270014624,,,,,,
1557947628275,,20.653421304716023,,,,,,,,
1557947628295,,,,,-4.2953290939331055,,,,,
1557947628296,,,,2.681438885773537,,-9.09106159210205,0.2968900799751282,,65.21718019546381,46.18273577084212
1557947628304,,,,,,,,1003.346435546875,,
1557947628315,,18.714021512687186,,,,,,,,
1557947628316,,,0.0,,,,,,,
1557947628333,0.0,,,,,,,,,
1557947628356,,,,,-3.718308687210083,-9.92426872253418,1.0295381546020508,,69.49914189936072,
1557947628357,,20.599843488257545,,1.842135999896386,,,,,63.41787614165071,44.675066717643446
1557947628396,,18.418926917168275,0.0,,,,,,,
1557947628403,,,,,,,,1003.3486328125,,
1557947628415,,,,2.126821074226721,-3.1460771560668945,-9.433443069458008,-0.05027977004647255,,52.309283796298644,45.21747267347216
1557947628432,0.0,,,,,,,,,
1557947628436,,29.71653399657811,,,,,,,,
1557947628475,,,,5.209526088196376,-5.925830364227295,-11.437450408935547,-1.1540404558181763,,37.26950435715946,45.26931257854742
1557947628477,,23.65922859595587,,,,,,,,
1557947628512,,,,,,,,1003.34619140625,,
1557947628516,,31.868420253243634,0.0,,,,,,,
1557947628542,0.0,,,4.587555114248714,-4.367157459259033,-8.435029983520508,-5.875550270080566,,23.712968798180214,44.53172370081112
1557947628557,,21.36941550621092,,,,,,,,
1557947628595,,30.25423142198769,,,,,,,,
1557947628596,,,0.0,,,,,,,
1557947628598,,,,,3.3017048835754395,-15.526871681213379,,,,
1557947628599,,,,9.225471348079635,,,-2.98087215423584,,289.57510109072496,44.9535349571843
1557947628610,,,,,,,,1003.349365234375,,
1557947628635,,38.590445069214354,,,,,,,,
1557947628645,0.0,,,,,,,,,
1557947628669,,,,3.479423802785405,-1.6305011510849,-9.617801666259766,1.398256540298462,,45.87976718337717,43.74851609625974
1557947628678,,28.63280026182021,,,,,,,,
1557947628679,,,0.0,,,,,,,
1557947628714,,,,,,,,1003.342041015625,,
1557947628715,,21.523386214860366,,,,,,,,
1557947628718,,,,1.2769103641999677,-3.969707727432251,-9.696812629699707,-2.542719841003418,,343.3193512825826,43.715137164518
1557947628756,,21.798857894879443,,,,,,,,
1557947628757,0.0,,,,,,,,,
1557947628778,,,,,-0.7374366521835327,-7.278595447540283,,,,
1557947628779,,,,4.231831479934018,,,-0.5075862407684326,,310.81886771148635,43.864308462776116
1557947628795,,17.940325576652064,0.0,,,,,,,
1557947628822,,,,,,,,1003.333984375,,
1557947628835,,22.160985478787016,,,,,,,,
1557947628838,,,,4.787312572186859,-0.22027328610420227,-6.902694225311279,-0.38547825813293457,,252.8277407899509,43.337032043175135
1557947628868,0.0,,,,,,,,,
1557947628875,,25.166470295694143,0.0,,,,,,,
1557947628898,,,,4.096494031661761,-0.6416656374931335,-7.00085973739624,-0.15083931386470795,,289.91235534137263,43.75320810345166
1557947628911,,,,,,,,1003.335693359375,,
1557947628915,,22.57771059554924,,,,,,,,
1557947628955,,25.871055433539482,,,,,,,,
1557947628956,,,0.0,,,,,,,
1557947628970,0.0,,,3.3218183625669115,-5.856396198272705,-9.720755577087402,-3.0550947189331055,,332.21877245667423,42.972233261549086
1557947628995,,24.057361530729434,,,,,,,,
1557947629027,,,,13.14891967977283,-15.668134689331055,-7.213950157165527,-3.1173458099365234,1003.34375,344.367863867355,41.64959539914384
1557947629036,,31.315999353894192,,,,,,,,
1557947629077,,39.2931452492394,0.0,,,,,,,
1557947629081,0.0,,,6.251079313544863,-5.214730739593506,-14.542824745178223,-2.8970725536346436,,331.9621144382327,42.314295249622546
1557947629115,,30.49501717940052,,,,,,,,
1557947629122,,,,,,,,1003.33837890625,,
1557947629141,,,,,4.405465602874756,,,,,
1557947629142,,,,,,-5.324867248535156,,,,
1557947629156,,37.675767249775475,,,,,,,,
1557947629158,,,42.01171875,,,,,,,
1557947629182,0.0,,,,,,,,,
1557947629196,,34.50561197044108,42.01171875,,,,,,,
1557947629199,,,,4.205163624377544,-0.37590113282203674,-12.610645294189453,1.5969812870025635,,17.042023781119042,42.23786792467764
1557947629217,,,,,,,,1003.337646484375,,
1557947629236,,26.83910938546407,42.01171875,,,,,,,
1557947629261,,,,,-4.71193265914917,-8.248276710510254,4.486870765686035,,,
1557947629262,,,,5.488190891160082,,,,,357.5396937170883,42.15801758678336
1557947629275,,25.611676628528322,,,,,,,,
1557947629283,0.0,,,,,,,,,
1557947629313,,,,,,,,1003.3310546875,,
1557947629316,,36.27251452041704,,,,,,,,
1557947629320,,,,4.807704369163055,-5.363175392150879,-9.311334609985352,-2.7462332248687744,,332.82766503816066,42.49872405749252
1557947629356,,41.09245735550594,,,,,,,,
1557947629358,,,344.53125,,,,,,,
1557947629388,,,,1.3707892794424452,-1.393467903137207,-8.54277229309082,0.11731946468353271,,332.9520735187979,41.99078558960732
1557947629389,0.0,,,,,,,,,
1557947629395,,30.83747733661426,344.53125,,,,,,,
1557947629407,,,,,,,,1003.33349609375,,
1557947629436,,24.557768227736677,344.53125,,,,,,,
1557947629437,,,0.0,,,,,,,
1557947629440,,,,,,,,,334.57497939955897,42.23139036628191
1557947629441,,,,1.3840587625046112,-3.8571767807006836,-6.711152076721191,-0.026337023824453354,,,
1557947629477,,28.553189228577963,,,,,,,,
1557947629489,0.0,,,,,,,,,
1557947629499,,,,3.409608357779876,-4.697566986083984,-7.82209587097168,-0.8379961848258972,,339.47396844024377,42.502068246937576
1557947629507,,,,,,,,1003.340087890625,,
1557947629516,,24.63732210946272,0.0,,,,,,,
1557947629556,,17.309643695996147,,,,,,,,
1557947629561,,,,,-1.2809370756149292,-7.510839939117432,,,,
1557947629562,,,,2.6468866809645775,,,-1.0917893648147583,,307.30223894937313,42.35613192882522
1557947629590,0.0,,,,,,,,,
1557947629596,,21.96383938941524,,,,,,,,
1557947629613,,,,,,,,1003.32861328125,,
1557947629619,,,,4.110772537059236,-5.825270652770996,-7.242681503295898,0.36392977833747864,,296.36320946526126,42.37941541634918
1557947629636,,20.351255706444004,0.0,,,,,,,
1557947629677,,18.228993852982825,,,,,,,,
1557947629680,,,,2.195525243910707,-3.8930907249450684,-7.6712565422058105,-0.3016786277294159,,332.45772491723983,41.54799614656724
1557947629699,0.0,,,,,,,,,
1557947629709,,,,,,,,1003.331787109375,,
1557947629716,,26.05807538253802,0.0,,,,,,,
1557947629743,,,,5.580986763448215,-7.666468143463135,-6.668055534362793,-2.6480679512023926,,332.7763891005141,42.840209576550926
1557947629756,,23.978828868205177,,,,,,,,
1557947629796,,24.74191478266382,0.0,,,,,,,
1557947629799,,,,8.898041378913641,-2.8084843158721924,-16.826963424682617,-4.764606952667236,,278.293602506534,42.94147435091798
1557947629810,0.0,,,,,,,1003.337890625,,
1557947629835,,25.583071219953645,,,,,,,,
1557947629873,,,,7.40845466345636,-0.7398309111595154,-11.327314376831055,2.5522968769073486,,1.9446506927944256,42.47783703574949
1557947629875,,28.439689836727425,,,,,,,,
1557947629910,,,,,,,,1003.337890625,,
1557947629911,0.0,,,,,,,,,
1557947629916,,24.29370458482363,0.0,,,,,,,
1557947629919,,,,3.330491634883549,-1.9896423816680908,-9.050358772277832,-1.7957061529159546,,257.9714401406716,43.58685144206562
1557947629956,,22.59001406371775,,,,,,,,
1557947629979,,,,6.5622706781919184,0.8164477348327637,-5.217124938964844,-0.42139238119125366,,106.28112442903756,43.07523424539848
1557947629996,,21.279161282499253,0.0,,,,,,,
1557947630017,0.0,,,,,,,1003.34619140625,,
1557947630036,,18.24779410952793,,,,,,,,
1557947630047,,,,,0.5842030644416809,-4.668835639953613,-0.20351335406303406,,97.63897486467965,
1557947630048,,,,6.177894611915738,,,,,101.59509556403191,44.1509097722412
1557947630075,,20.506642275390963,,,,,,,,
1557947630076,,,0.0,,,,,,,
1557947630099,,,,,,,,,110.14746229175,43.21974404708051
1557947630100,,,,5.763978635199063,-5.348809719085693,-10.95141315460205,-1.1564347743988037,,310.35554182913853,
1557947630110,,,,,,,,1003.3544921875,,
1557947630116,,14.914172835280322,,,,,,,,
1557947630127,0.0,,,,,,,,,
1557947630156,,23.229993952340017,,,,,,,,
1557947630160,,,,10.552101931064456,-10.417490005493164,-7.673650741577148,-6.550735950469971,,325.5853746970279,43.24506001352203
1557947630195,,20.385250958772957,,,,,,,,
1557947630196,,,0.0,,,,,,,
1557947630212,,,,,,,,1003.353515625,,
1557947630219,,,,7.953595520370655,0.9337671995162964,-15.438283920288086,-4.28096342086792,,215.54350712984626,43.65052393658475
1557947630228,0.0,,,,,,,,,
1557947630235,,23.29760971499827,,,,,,,,
1557947630275,,28.46335007862435,0.0,,,,,,,
1557947630278,,,,,-3.284945011138916,,,,,
1557947630279,,,,5.6783121534795455,,-13.12302017211914,3.816473960876465,,353.9804684802163,43.38219852358367
1557947630314,,,,,,,,1003.353759765625,,
1557947630316,,34.52902030120696,,,,,,,,
1557947630335,0.0,,,,,,,,,
1557947630355,,42.121058678116185,,,,,,,,
1557947630358,,,126.85546875,,,,,,,
1557947630359,,,,,-3.7087316513061523,,,,,
1557947630360,,,,2.055147184869505,,-9.596253395080566,1.4150164127349854,,334.47314981677056,44.07047887553633
1557947630395,,34.584643192183464,126.85546875,,,,,,,
1557947630402,,,,1.4589379646651228,-2.60018253326416,-9.349642753601074,1.3838908672332764,,338.70037096956435,44.08268862879359
1557947630422,,,,,,,,1003.346923828125,,
1557947630437,,32.26275122976246,126.85546875,,,,,,,
1557947630438,,,0.0,,,,,,,
1557947630444,0.0,,,,,,,,,
1557947630466,,,,4.251033881598687,-4.1708269119262695,-6.02160120010376,-1.4652961492538452,,321.0853762793513,43.82912603625784
1557947630475,,27.37506365052768,,,,,,,,
1557947630511,,,,,,,,1003.35791015625,,
1557947630516,,27.615988810202985,,,,,,,,
1557947630519,,,,4.7696436213472175,-2.4613144397735596,-5.933012962341309,-3.0886144638061523,,312.2737389858341,44.84874366353005
1557947630552,0.0,,,,,,,,,
1557947630557,,17.77218798394184,0.0,,,,,,,
1557947630579,,,,4.451039679297924,-5.763019561767578,-6.249057292938232,-0.7398309111595154,,330.83710031966154,44.935393539425355
1557947630596,,21.859591914698928,,,,,,,,
1557947630618,,,,,,,,1003.356201171875,,
1557947630636,,21.207958263550864,0.0,,,,,,,
1557947630641,,,,2.7965683582503296,-4.8843207359313965,-7.041562080383301,-0.699128270149231,,324.22202454246377,45.7767349809225
1557947630662,0.0,,,,,,,,,
1557947630678,,17.822800102101333,,,,,,,,
1557947630703,,,,8.180205612023482,-10.204399108886719,-13.913130760192871,-3.105374336242676,,316.9359953774335,46.20907513891391
1557947630716,,24.149970202762134,0.0,,,,,,,
1557947630723,,,,,,,,1003.35546875,,
1557947630756,,23.56418296237544,,,,,,,,
1557947630764,0.0,,,9.89646568018019,-0.48124924302101135,-16.750347137451172,-2.3942747116088867,,215.9958842189546,47.39502492542418
1557947630796,,22.563257778830184,,,,,,,,
1557947630807,,,,,,,,1003.358642578125,,
1557947630819,,,,,-0.7110996246337891,-9.73272705078125,,,,
1557947630820,,,,,,,1.41022789478302,,342.6344779692217,
1557947630821,,,,6.649475948938218,,,,,338.11215678579015,47.83298369540764
1557947630836,,23.257338829789447,0.0,,,,,,,
1557947630873,0.0,,,,,,,,,
1557947630875,,29.124386694008514,,,,,,,,
1557947630879,,,,1.9756309515463062,-3.787742853164673,-7.649707794189453,-3.0598831176757812,,273.3878942672532,48.02451646433905
1557947630911,,,,,,,,1003.3671875,,
1557947630916,,22.709823531042517,0.0,,,,,,,
1557947630943,,,,8.132024457497884,1.472478985786438,-3.478881359100342,-0.22506183385849,,72.35476885926215,47.94671871776184
1557947630956,,16.89129585456149,,,,,,,,
1557947630996,,21.399700633424192,0.0,,,,,,,
1557947631003,,,,3.288748610643755,-0.5818088054656982,-8.636149406433105,-1.843591570854187,,198.00311688838997,48.08792973221302
1557947631004,0.0,,,,,,,,,
1557947631033,,,,,,,,1003.374267578125,,
1557947631036,,18.640372601803943,,,,,,,,
1557947631059,,,,,-7.834067344665527,-6.727912425994873,,,,
1557947631060,,,,7.0780182887237455,,,-4.455745220184326,,312.2640981738206,48.445529807016015
1557947631076,,21.45501535923923,,,,,,,,
1557947631109,0.0,,,,,,,1003.374267578125,,
1557947631116,,23.14415443121235,0.0,,,,,,,
1557947631119,,,,3.8303708086713204,-5.731894016265869,-9.059935569763184,-2.537931203842163,,309.0684029253334,48.98962204118689
1557947631156,,23.30930023447706,,,,,,,,
1557947631189,,,,,0.39266106486320496,-15.711231231689453,,,,
1557947631190,,,,7.325199153132742,,,-1.7095122337341309,,204.01763120734154,48.8308948963729
1557947631196,,23.699380706627863,0.0,,,,,,,
1557947631208,,,,,,,,1003.391357421875,,
1557947631226,0.0,,,,,,,,,
1557947631236,,25.250595052171295,,,,,,,,
1557947631239,,,,3.919634783333365,-3.44057297706604,-12.107848167419434,2.2482240200042725,,343.4715637557836,48.80316696932965
1557947631276,,24.517542458106064,0.0,,,,,,,
1557947631299,,,,3.836066405078562,-5.894704341888428,-11.83489990234375,0.21548473834991455,,324.029416622964,48.7356984809752
1557947631311,,,,,,,,1003.39306640625,,
1557947631316,,22.424228198303325,,,,,,,,
1557947631335,0.0,,,,,,,,,
1557947631357,,27.58790062721317,,,,,,,,
1557947631376,,,,2.3181253008149323,-0.7470137476921082,-8.827691078186035,0.8882759809494019,,352.43175254110673,48.82647102223704
1557947631396,,30.400425389323992,0.0,,,,,,,
1557947631417,,,,,,,,1003.39306640625,,
1557947631419,,,,1.9076945350411525,-2.3128695487976074,-7.664073467254639,-0.19393625855445862,,319.28060465910755,49.09899167298488
1557947631435,0.0,,,,,,,,,
1557947631436,,28.362239737926807,,,,,,,,
1557947631476,,27.264448895216134,0.0,,,,,,,
1557947631478,,,,,-4.673624515533447,-4.905869007110596,-2.238646984100342,,,
1557947631479,,,,5.693303427576738,,,,,324.9258004043527,48.52943011185276
1557947631508,,,,,,,,1003.400634765625,,
1557947631516,,30.369889926392844,,,,,,,,
1557947631538,,,,,-6.040755271911621,-10.04398250579834,-0.5530774593353271,,329.0618692675781,49.351739526811116
1557947631539,,,,3.5011815392836327,,,,,,
1557947631542,0.0,,,,,,,,,
1557947631558,,26.52539048795816,0.0,,,,,,,
1557947631596,,25.434683125019593,,,,,,,,
1557947631599,,,,4.997767331414118,-4.620950222015381,-4.53236198425293,-0.8906702399253845,,326.44751190991815,49.015152622628534
1557947631614,,,,,,,,1003.40087890625,,
1557947631636,,19.357933561247606,,,,,,,,
1557947631658,0.0,,,,,,,,,
1557947631659,,,,4.622940842283189,-7.977723598480225,-9.481328010559082,-0.03591412305831909,,325.2953853554367,48.866269762065784
1557947631676,,20.31953194923428,0.0,,,,,,,
1557947631708,,,,,,,,1003.40087890625,,
1557947631716,,28.040157356325693,,,,,,,,
1557947631719,,,,8.832861353902574,-6.1245551109313965,-15.847704887390137,-6.438204765319824,,287.4341441444386,48.84644726134693
1557947631756,,31.482541998662768,0.0,,,,,,,
1557947631785,,,,,1.1684061288833618,-14.090307235717773,1.4772675037384033,,,
1557947631786,0.0,,,10.431848880679587,,,,,47.229559412438846,49.19140136501592
1557947631796,,27.476315253641648,,,,,,,,
1557947631815,,,,,,,,1003.399658203125,,
1557947631836,,31.36877782383145,0.0,,,,,,,
1557947631839,,,,4.251969049622797,-2.877918243408203,-9.737515449523926,-0.5889915823936462,,279.3916373778836,48.944221952136616
1557947631875,,33.52485182294826,,,,,,,,
1557947631898,0.0,,,,,,,,,
1557947631899,,,,4.47296925078376,-1.7238779067993164,-5.8803391456604,-0.7230709791183472,,266.6875743141191,47.904016719456145
1557947631916,,24.315187504881827,,,,,,,,
1557947631921,,,,,,,,1003.4169921875,,
1557947631956,,23.00589076269288,,,,,,,,
1557947631959,,,267.9541015625,,,,,,,
1557947631961,,,,6.003194276567834,0.24661029875278473,-5.588237285614014,0.20590762794017792,,45.725961568552236,49.03057359938499
1557947631996,,18.16654566742773,267.9541015625,,,,,,,
1557947632015,0.0,,,,,,,1003.4169921875,,
1557947632019,,,,1.810013216086343,-2.1883671283721924,-7.960963726043701,-0.8547561168670654,,267.36569598548544,48.72018281263436
1557947632036,,19.238306210654372,267.9541015625,,,,,,,
1557947632075,,20.421373569272276,,,,,,,,
1557947632078,,,,8.477817087455907,-8.375173568725586,-8.755863189697266,-6.397502422332764,,306.280312875945,48.444937668160925
1557947632108,,,,,,,,1003.414794921875,,
1557947632116,0.0,23.202935091722686,0.0,,,,,,,
1557947632138,,,,2.976333569311092,-5.597814559936523,-10.386363983154297,-0.17238777875900269,,313.3741063667852,48.47725249842593
1557947632155,,30.899281294057243,,,,,,,,
1557947632196,,28.27221235520782,,,,,,,,
1557947632198,,,,,-1.5347301959991455,,,,,
1557947632199,,,,4.874360066985416,,-13.76468563079834,0.5578660368919373,,320.30249316649525,48.44564312939003
1557947632208,,,,,,,,1003.4140625,,
1557947632227,0.0,,,,,,,,,
1557947632235,,21.7051781958127,0.0,,,,,,,
1557947632269,,,,3.323628858501277,-3.505218267440796,-11.844477653503418,2.0351336002349854,,333.61269795305793,48.66669436915059
1557947632275,,26.41380230082663,,,,,,,,
1557947632308,,,,,,,,1003.4140625,,
1557947632315,,22.751376093132762,0.0,,,,,,,
1557947632318,,,,,-6.174834728240967,-9.584281921386719,-1.3791022300720215,,,
1557947632330,0.0,,,,,,,,,
1557947632355,,28.084972807333408,,,,,,,,
1557947632383,,,,3.9211140536527282,-0.3735068738460541,-8.435029983520508,2.9952378273010254,,5.943511514321472,47.94487889281626
1557947632395,,26.823733004174493,0.0,,,,,,,
1557947632406,,,,,,,,1003.416259765625,,
1557947632436,,36.173950311079125,,,,,,,,
1557947632441,0.0,,,1.6005594229233082,-2.4110348224639893,-8.071100234985352,-0.18435916304588318,,306.4712849651386,48.43869470486694
1557947632476,,31.572876342279873,,,,,,,,
1557947632508,,,,,-5.542746067047119,-6.2418742179870605,-3.0311520099639893,,,
1557947632509,,,,5.796069806465068,,,,1003.436767578125,314.94691793262615,47.44365053373748
1557947632516,,31.633623794417115,,,,,,,,
1557947632519,,,39.0966796875,,,,,,,
1557947632555,0.0,,,,,,,,,
1557947632559,,25.793252957507224,39.0966796875,,,,,,,
1557947632576,,,,4.225519922532925,-4.156461238861084,-5.89231014251709,-1.551490068435669,,313.8294101919529,47.39472028556194
1557947632596,,25.36988361713801,39.0966796875,,,,,,,
1557947632621,,,,1.7160369267347473,-3.3304362297058105,-8.164477348327637,0.797293484210968,1003.436767578125,323.00958058742185,47.92404042355777
1557947632636,,29.90087296785493,,,,,,,,
1557947632665,0.0,,,,,,,,,
1557947632676,,23.708760992626303,0.0,,,,,,,
1557947632687,,,,5.351286097161761,-7.429434776306152,-6.0311784744262695,0.1005595400929451,,323.7690873778435,48.45931394123668
1557947632709,,,,,,,,1003.44287109375,,
1557947632716,,20.34427905025403,,,,,,,,
1557947632739,,,,6.693603582410377,-8.58108139038086,-12.301783561706543,-4.929811954498291,,303.4585021826243,48.908720647902754
1557947632756,,21.694508320975764,,,,,,,,
1557947632770,0.0,,,,,,,,,
1557947632795,,24.416051948009326,0.0,,,,,,,
1557947632798,,,,8.991902417288081,-1.9920365810394287,-16.46542739868164,-1.6664152145385742,,252.03321220455996,48.67871352160654
1557947632806,,,,,,,,1003.450927734375,,
1557947632836,,22.622034751207526,,,,,,,,
1557947632861,,,,6.557174120014318,-0.9792584180831909,-12.047990798950195,-3.0574889183044434,,210.05232190510117,49.5797902032092
1557947632871,0.0,,,,,,,,,
1557947632876,,24.389305323758094,0.0,,,,,,,
1557947632906,,,,,,,,1003.450927734375,,
1557947632915,,26.037395076184225,,,,,,,,
1557947632919,,,,6.654352768421702,-3.098191499710083,-7.230710029602051,-1.2761484384536743,,199.26422935636288,49.60925982903711
1557947632956,,16.64451156304733,0.0,,,,,,,
1557947632983,0.0,,,5.862567815002062,0.06943397223949432,-6.375953674316406,-0.8068706393241882,,171.4290601666958,49.09895517148906
1557947632996,,14.43227497909806,,,,,,,,
1557947633006,,,,,,,,1003.455810546875,,
1557947633035,,12.65251130549182,,,,,,,,
1557947633039,,,,,-0.6560313105583191,-5.746259689331055,1.5897984504699707,,,
1557947633040,,,,5.780823068062046,,,,,336.3679365000859,49.56482762399602
1557947633075,,19.17738249321544,0.0,,,,,,,
1557947633097,0.0,,,,,,,,,
1557947633098,,,,,-5.066285610198975,-8.616994857788086,-0.8308133482933044,,284.6738529649722,48.8317410989204
1557947633099,,,,1.7921162492179628,,,,,,
1557947633106,,,,,,,,1003.46630859375,,
1557947633116,,22.006160189266105,,,,,,,,
1557947633156,,22.504739413678646,0.0,,,,,,,
1557947633158,,,,,-5.992869853973389,-7.020013809204102,-6.019207000732422,,296.99513173708164,
1557947633159,,,,7.183182456194094,,,,,306.94655684834476,48.69110005132034
1557947633195,,17.89391225740446,,,,,,,,
1557947633205,,,,,,,,1003.46630859375,,
1557947633207,0.0,,,,,,,,,
1557947633217,,,,,-3.2657909393310547,,,,,
1557947633218,,,,1.5913523421897484,,-10.139753341674805,1.1755889654159546,,313.619924875014,49.171819849090646
1557947633235,,21.734125800401358,0.0,,,,,,,
1557947633276,,21.971226496292925,,,,,,,,
1557947633278,,,,4.018879918301801,-5.073468208312988,-12.605856895446777,-0.8308133482933044,,300.28750148308126,50.07185885812415
1557947633305,,,,,,,,1003.47314453125,,
1557947633307,0.0,,,,,,,,,
1557947633316,,29.340863023565994,0.0,,,,,,,
1557947633338,,,,2.0697172640780326,-3.684788942337036,-11.018452644348145,1.144463300704956,,318.1020964989569,49.326312269771506
1557947633355,,22.930542270864738,,,,,,,,
1557947633396,,22.98443376864801,,,,,,,,
1557947633402,,,,,-5.446975231170654,-10.259467124938965,,,,
1557947633403,,,,2.5551984083623354,,,-0.4668835997581482,,306.72474987014317,49.98781366536889
1557947633406,,,,,,,,1003.4775390625,,
1557947633425,0.0,,,,,,,,,
1557947633436,,26.653091834552164,0.0,,,,,,,
1557947633469,,,,4.236121236375614,0.6392713785171509,-8.595446586608887,1.9010541439056396,,19.694693377380872,49.28173581413431
1557947633475,,27.97326828652217,,,,,,,,
1557947633506,,,,,,,,1003.470703125,,
1557947633516,,37.19644044006657,0.0,,,,,,,
1557947633518,,,,,-1.5658557415008545,-9.045570373535156,1.3240339756011963,,,
1557947633519,,,,1.7168280519468984,,,,,325.4919855205063,49.59423758419461
1557947633541,0.0,,,,,,,,,
1557947633556,,35.964532793184404,,,,,,,,
1557947633586,,,,,-6.711152076721191,,,,,
1557947633587,,,,5.684919841003285,,-5.597814559936523,0.8308133482933044,,324.6994718409206,49.86631695637671
1557947633595,,42.116564421222535,,,,,,,,
1557947633598,,,54.345703125,,,,,,,
1557947633609,,,,,,,,1003.466796875,,
1557947633636,,27.98168940586755,54.345703125,,,,,,,
1557947633638,,,,,-3.964919090270996,-8.140534400939941,-1.1540404558181763,,300.1532404545663,49.03908901880658
1557947633639,,,,2.463286135904903,,,,,,
1557947633653,0.0,,,,,,,,,
1557947633676,,23.467675436732314,54.345703125,,,,,,,
1557947633698,,,,,-2.6145482063293457,-7.68083381652832,-0.20830190181732178,,299.96914636586695,
1557947633699,,,,1.7531703433124484,,,,,,49.80690317396905
1557947633706,,,,,,,,1003.4765625,,
1557947633716,,23.715767238749173,54.345703125,,,,,,,
1557947633756,,15.649356586820929,,,,,,,,
1557947633761,0.0,,,5.103903918088401,-7.034379482269287,-6.850020408630371,0.2011190801858902,,319.2244092777113,49.496834577855
1557947633796,,24.828201292887382,0.0,,,,,,,
1557947633806,,,,,,,,1003.480224609375,,
1557947633822,,,,,-7.2115559577941895,,,,,
1557947633823,,,,6.178101462674878,,-13.848485946655273,-0.3782954216003418,,305.5646798056569,49.12109416419453
1557947633836,,24.164942727736168,,,,,,,,
1557947633862,0.0,,,,,,,,,
1557947633876,,27.582117638017944,0.0,,,,,,,
1557947633882,,,,9.666579761333715,0.5554717779159546,-15.186884880065918,-6.888328552246094,,189.90666528777024,47.490331050305734
1557947633906,,,,,,,,1003.4951171875,,
1557947633916,,27.789948919347193,,,,,,,,
1557947633939,,,,,0.9481328129768372,-15.888407707214355,-0.33280420303344727,,,
1557947633940,,,,,,,,,103.55292147829186,47.49537249430198
1557947633942,,,,9.434880379392073,,,,,,
1557947633956,,19.09320075281493,,,,,,,,
1557947633963,0.0,,,,,,,,,
1557947633995,,21.99139866570706,0.0,,,,,,,
1557947633998,,,,3.429700569006279,-2.6576449871063232,-9.517242431640625,-3.723097324371338,,231.7153050465505,47.13976706591719
1557947634005,,,,,,,,1003.489013671875,,
1557947634036,,25.198227871257735,,,,,,,,
1557947634058,,,,6.420601303129637,1.3360053300857544,-8.494887351989746,0.31125572323799133,,55.13612492394304,45.99402094752255
1557947634075,0.0,,,,,,,,,
1557947634077,,18.0419044696308,0.0,,,,,,,
1557947634106,,,,,,,,1003.500244140625,,
1557947634116,,17.542520995064944,,,,,,,,
1557947634118,,,,5.694066208267239,-0.2178790122270584,-4.77178955078125,-0.41660380363464355,,188.665059840067,45.945035870046446
1557947634156,,18.542130617153937,0.0,,,,,,,
1557947634178,,,,,-3.7135202884674072,,,,,
1557947634179,0.0,,,1.1822337781987482,,-8.047157287597656,-1.5874042510986328,,251.29124192483232,46.06855272749388
1557947634196,,19.07952782137236,,,,,,,,
1557947634206,,,,,,,,1003.5009765625,,
1557947634236,,25.736516276029707,,,,,,,,
1557947634238,,,,,-10.616214752197266,,,,,
1557947634239,,,,7.403401660057133,,-8.16208267211914,-2.1620302200317383,,293.761173768864,45.354998327033826
1557947634276,,16.323103515634045,0.0,,,,,,,
1557947634300,,,,4.2244274225437755,-7.819701671600342,-8.947404861450195,-0.30407288670539856,,283.64944753287534,46.01976423648291
1557947634301,0.0,,,,,,,,,
1557947634306,,,,,,,,1003.50439453125,,
1557947634316,,19.56142284695162,,,,,,,,
1557947634355,,17.14072077739699,,,,,,,,
1557947634356,,,0.0,,,,,,,
1557947634378,,,,,-3.6345090866088867,-13.360053062438965,,,,
1557947634379,,,,5.758734330358233,,,-4.065478801727295,,200.73870327362852,45.635709472738576
1557947634396,,20.245596606224858,,,,,,,,
1557947634403,0.0,,,,,,,,,
1557947634405,,,,,,,,1003.49951171875,,
1557947634426,,,,5.242938242337389,-4.484476566314697,-8.3033447265625,4.8531951904296875,,311.77664123313514,44.207704776461576
1557947634435,,16.12687768554754,0.0,,,,,,,
1557947634476,,23.9685439392265,,,,,,,,
1557947634495,,,,5.512453545268669,1.240234375,-6.7398834228515625,1.0486923456192017,,10.62474857473751,43.41492119755291
1557947634505,,,,,,,,1003.496826171875,,
1557947634516,,29.43593769181838,,,,,,,,
1557947634519,0.0,,,,,,,,,
1557947634543,,,,,0.1412622183561325,-12.3807954788208,3.8906965255737305,,,
1557947634544,,,,5.572739852049274,,,,,333.6098173207755,44.39634901861713
1557947634556,,23.837339703579758,0.0,,,,,,,
1557947634596,,26.96483184836773,,,,,,,,
1557947634598,,,,2.0735927865724135,-2.6600394248962402,-9.06472396850586,3.0311520099639893,,299.0325088646048,43.22311852953337
1557947634605,,,,,,,,1003.498779296875,,
1557947634636,,26.991117916314025,0.0,,,,,,,
1557947634642,0.0,,,,,,,,,
1557947634667,,,,,-5.126142501831055,-8.815719604492188,1.4748733043670654,,284.53583533241374,
1557947634668,,,,2.802852614829496,,,,,,43.3989581909302
1557947634676,,23.36282707013289,,,,,,,,
1557947634705,,,,,,,,1003.497802734375,,
1557947634716,,22.870841154288538,0.0,,,,,,,
1557947634718,,,,2.3414187217484614,-3.749434232711792,-8.743891716003418,3.158048391342163,,298.2537921671424,42.62428768110926
1557947634742,0.0,,,,,,,,,
1557947634756,,23.657425985359385,,,,,,,,
1557947634788,,,,1.0297845195625404,-3.1364998817443848,-9.47175121307373,2.073441982269287,,281.7743557000317,43.238688397025314
1557947634795,,18.938491648008934,,,,,,,,
1557947634818,,,,,,,,1003.5,,
1557947634836,,17.18105142120409,0.0,,,,,,,
1557947634845,,,,,-2.944957971572876,-9.466962814331055,1.144463300704956,,257.9723758765879,41.66078611601909
1557947634846,,,,0.9346658145655322,,,,,,
1557947634847,0.0,,,,,,,,,
1557947634880,,16.997964450838012,,,,,,,,
1557947634898,,,,,-3.287339210510254,-8.877970695495605,0.41660380363464355,,,
1557947634899,,,,1.880786866625482,,,,,238.39895933810976,41.60890799441952
1557947634905,,,,,,,,1003.501220703125,,
1557947634916,,16.150955638480646,0.0,,,,,,,
1557947634956,0.0,13.584506939077649,,,,,,,,
1557947634985,,,,2.037408618398974,-4.491659641265869,-9.483722686767578,0.9170072674751282,,229.03501587283245,41.69740901389787
1557947634996,,13.344035966708363,0.0,,,,,,,
1557947635007,,,,,,,,1003.509765625,,
1557947635018,,,,3.0424577041482044,-4.443774223327637,-8.75107479095459,0.45730647444725037,,248.83027012536337,41.267350163485084
1557947635036,,12.650238317372153,,,,,,,,
1557947635059,0.0,,,,,,,,,
1557947635076,,13.240793814224652,,,,,,,,
1557947635083,,,,4.508582302324208,-6.055120944976807,-10.300169944763184,-0.05985686928033829,,270.74749339828804,41.36193792907138
1557947635106,,,,,,,,1003.5126953125,,
1557947635116,,16.82455145292433,0.0,,,,,,,
1557947635138,,,,10.715133546254219,-4.556304931640625,-10.719168663024902,-9.577098846435547,,46.165887222803576,41.19540752060232
1557947635156,,19.10952142835931,,,,,,,,
1557947635177,0.0,,,,,,,,,
1557947635196,,28.904755149620286,0.0,,,,,,,
1557947635200,,,,8.05396380720776,1.9609110355377197,-15.270685195922852,0.2849186956882477,,358.82313962298656,40.54979179571585
1557947635205,,,,,,,,1003.51123046875,,
1557947635236,,29.494428393289457,,,,,,,,
1557947635272,,,,4.925489860222958,0.67518550157547,-10.618608474731445,-2.0638649463653564,,72.08012695273595,40.7485247458184
1557947635276,,32.329009319333856,0.0,,,,,,,
1557947635296,0.0,,,,,,,,,
1557947635306,,,,,,,,1003.504638671875,,
1557947635316,,41.30727781158917,,,,,,,,
1557947635320,,,,1.842364097458912,-5.176422119140625,-9.450202941894531,-3.723097324371338,,120.40387242492707,39.59027017201054
1557947635356,,30.8887887268,,,,,,,,
1557947635391,,,,5.6571000445728945,-0.10774236917495728,-7.601822376251221,0.13886794447898865,,250.3514966874978,38.42047709024346
1557947635396,,30.854946506330112,,,,,,,,
1557947635398,,,46.650390625,,,,,,,
1557947635406,,,,,,,,1003.508544921875,,
1557947635414,0.0,,,,,,,,,
1557947635436,,30.044312961153796,46.650390625,,,,,,,
1557947635438,,,,6.579181504751251,0.09816526621580124,-4.328848838806152,-0.5075862407684326,,94.42072633155306,39.136330429453125
1557947635476,,22.625452538820316,46.650390625,,,,,,,
1557947635504,,,,,-1.0415095090866089,,,,,
1557947635505,,,,5.1603281250946225,,-5.262616157531738,-0.22027328610420227,1003.51513671875,192.31242183798884,38.19135489566297
1557947635516,,16.71185441185782,,,,,,,,
1557947635525,0.0,,,,,,,,,
1557947635556,,13.3884933029879,,,,,,,,
1557947635559,,,,3.2130448231899345,-2.887495517730713,-6.225114345550537,-0.282524436712265,,202.99602615280435,39.05875506601337
1557947635596,,20.76171319126608,,,,,,,,
1557947635606,,,,,,,,1003.515380859375,,
1557947635620,,,,7.79055291305836,-10.431855201721191,-9.596253395080566,-4.336031913757324,,147.75226405035994,38.19686853419776
1557947635628,0.0,,,,,,,,,
1557947635636,,27.174770854916485,,,,,,,,
1557947635676,,21.280041453043445,0.0,,,,,,,
1557947635680,,,,5.0335612230731615,-7.1756415367126465,-6.0311784744262695,-1.951333999633789,,88.57302572270078,37.76674616739527
1557947635705,,,,,,,,1003.506591796875,,
1557947635716,,21.20739897088649,,,,,,,,
1557947635732,0.0,,,,,,,,,
1557947635737,,,,,,,,,61.65849454353628,
1557947635738,,,,4.86469764765756,-0.8236305117607117,-9.759063720703125,-3.0934031009674072,,90.49229521909604,37.943963885414995
1557947635756,,20.808521785586343,0.0,,,,,,,
1557947635795,,21.425895008205046,,,,,,,,
1557947635805,,,,1.00876838241902,-4.304905891418457,-9.462174415588379,-0.26337021589279175,,179.95171557152435,37.4477877073354
1557947635806,,,,,,,,1003.494384765625,,
1557947635835,,22.94272473322359,0.0,,,,,,,
1557947635846,0.0,,,,,,,,,
1557947635866,,,,5.928542920042425,-6.70157527923584,-13.723982810974121,1.1995316743850708,,202.55184529070004,37.40599325783946
1557947635875,,25.74031267727719,,,,,,,,
1557947635906,,,,,,,,1003.4951171875,,
1557947635915,,19.32032338565073,0.0,,,,,,,
1557947635918,,,,4.580305914511367,-2.825244188308716,-12.615433692932129,2.578634023666382,,234.69724269477297,37.090579814323185
1557947635947,0.0,,,,,,,,,
1557947635956,,18.933270022650003,,,,,,,,
1557947635986,,,,,-2.4421603679656982,,,,,
1557947635987,,,,2.6545663322112287,,-10.319324493408203,1.8603515625,,222.77916364974772,37.11604943933351
1557947635995,,23.322597859803118,,,,,,,,
1557947636006,,,,,,,,1003.508056640625,,
1557947636036,,18.001721388125652,0.0,,,,,,,
1557947636038,,,,2.2103578056914017,-2.099778890609741,-9.68484115600586,1.783734679222107,,230.56332534113608,37.15434293660316
1557947636064,0.0,,,,,,,,,
1557947636076,,24.837788773292626,,,,,,,,
1557947636106,,,,1.5212400580577354,-3.6105663776397705,-7.925049781799316,0.2729473412036896,,185.83047669299833,37.00482553992186
1557947636107,,,,,,,,1003.498291015625,,
1557947636116,,23.683701732585657,0.0,,,,,,,
1557947636156,,21.371839640842502,,,,,,,,
1557947636160,,,,5.146848117779012,-6.869174480438232,-7.92265510559082,-2.0303449630737305,,102.73848289147037,36.51560572639324
1557947636163,0.0,,,,,,,,,
1557947636196,,20.838888093769548,0.0,,,,,,,
1557947636214,,,,,,,,1003.511962890625,,
1557947636218,,,,2.963280065663486,-3.067065954208374,-6.962551116943359,-1.3862850666046143,,81.69740213432908,36.66431996129872
1557947636236,,14.042847538430701,,,,,,,,
1557947636265,0.0,,,,,,,,,
1557947636275,,17.54048285797748,,,,,,,,
1557947636289,,,,2.4590173405504747,-2.3152637481689453,-7.903501033782959,1.6759923696517944,,219.90732865094583,37.303982738004954
1557947636316,,22.175525760000603,0.0,,,,,,,
1557947636317,,,,,,,,1003.51416015625,,
1557947636344,,,,3.8780086281627817,-5.549929141998291,-6.476513385772705,0.07901106774806976,,103.78292809859204,36.000398812087695
1557947636355,,18.509704435788578,,,,,,,,
1557947636368,0.0,,,,,,,,,
1557947636396,,19.486480108176114,0.0,,,,,,,
1557947636397,,,,5.757967528866116,-8.255459785461426,-6.253845691680908,-1.69035804271698,,39.827618522098874,37.45547709053091
1557947636405,,,,,,,,1003.520263671875,,
1557947636435,,17.85212773958792,,,,,,,,
1557947636459,,,,9.118384066188243,-9.66089916229248,-13.338504791259766,-6.87156867980957,,73.87639157236845,36.79619476894772
1557947636475,,21.879809004629927,,,,,,,,
1557947636476,,,0.0,,,,,,,
1557947636481,0.0,,,,,,,,,
1557947636505,,,,,,,,1003.511474609375,,
1557947636516,,21.994277214907964,,,,,,,,
1557947636527,,,,10.091309054459545,1.412622094154358,-14.736761093139648,1.1779831647872925,,321.98072187198613,36.45798542473408
1557947636556,,23.423879878035297,,,,,,,,
1557947636587,0.0,,,4.5899148099552445,-4.9753031730651855,-12.009682655334473,-1.9752767086029053,,142.8688973598543,36.9240403680869
1557947636596,,35.61204044482798,0.0,,,,,,,
1557947636605,,,,,,,,1003.518310546875,,
1557947636635,,34.4318339810461,,,,,,,,
1557947636637,,,,4.727076579739602,-1.8699285984039307,-6.725517749786377,-0.3184385597705841,,174.71681270481645,37.07616499285224
1557947636676,,29.918940665078956,,,,,,,,
1557947636677,,,0.0,,,,,,,
1557947636693,0.0,,,,,,,,,
1557947636697,,,,6.573818944876679,0.6201171875,-6.409473896026611,-0.39266106486320496,,32.07828738038296,37.416626836850426
1557947636705,,,,,,,,1003.53173828125,,
1557947636716,,22.11383315938191,,,,,,,,
1557947636755,,19.332197728690343,,,,,,,,
1557947636756,,,0.0,,,,,,,
1557947636765,,,,5.867926377097877,-0.821236252784729,-4.278569221496582,-0.04309694468975067,,178.9925657667578,37.46028176702575
1557947636793,0.0,,,,,,,,,
1557947636796,,17.701211466689024,,,,,,,,
1557947636805,,,,,,,,1003.541748046875,,
1557947636817,,,,,-3.8021082878112793,,,,,
1557947636818,,,,1.47216205753892,,-10.381575584411621,-1.6807808876037598,,146.357525761465,37.821278907055536
1557947636836,,18.723181719046515,,,,,,,,
1557947636876,,29.273980085836374,0.0,,,,,,,
1557947636879,,,,11.920691675177595,-11.688849449157715,-4.78136682510376,-6.222720146179199,,45.24143819411529,37.326847117154145
1557947636904,0.0,,,,,,,,,
1557947636905,,,,,,,,1003.5390625,,
1557947636915,,22.462925289406122,,,,,,,,
1557947636937,,,,,-3.993650436401367,-13.963410377502441,0.112530916929245,,175.2325876098008,
1557947636938,,,,4.800710927449761,,,,,170.21540385307623,36.57397349207673
1557947636956,,22.947635623602494,0.0,,,,,,,
1557947636996,,26.47470018132814,,,,,,,,
1557947636997,,,,6.62749016944159,-1.5754327774047852,-14.05439281463623,3.7422516345977783,,258.779246613809,38.23713872777163
1557947637005,,,,,,,,1003.5341796875,,
1557947637021,0.0,,,,,,,,,
1557947637036,,29.189772281904727,0.0,,,,,,,
1557947637057,,,,,-5.913858890533447,,,,,
1557947637069,,,,6.906032368955034,,-12.93387222290039,4.85080099105835,,244.05416472558358,37.92246714159334
1557947637076,,44.03504392231284,,,,,,,,
1557947637105,,,,,,,,1003.533935546875,,
1557947637116,,48.03385607624503,,,,,,,,
1557947637117,,,,3.759289742610495,-3.225088119506836,-11.214783668518066,2.9305922985076904,,224.89564802823787,37.731366262643824
1557947637141,0.0,,,,,,,,,
1557947637156,,34.850054121485236,,,,,,,,
1557947637158,,,0.0,,,,,,,
1557947637177,,,,,-0.1005595400929451,,,,,
1557947637178,,,,4.048897845214958,,-7.4557719230651855,1.922602653503418,,263.95400283468575,38.19700983760254
1557947637199,,26.8995182245255,,,,,,,,
1557947637205,,,,,,,,1003.5341796875,,
1557947637236,,23.043275859768425,0.0,,,,,,,
1557947637237,,,,,-5.202759265899658,,,,,
1557947637238,,,,3.262631591247703,,-7.158881664276123,-0.30886146426200867,,113.95620116919173,38.292739637869936
1557947637258,0.0,,,,,,,,,
1557947637276,,36.647061849687006,,,,,,,,
1557947637303,,,,4.039779746972938,-6.438204765319824,-9.031204223632812,-1.3551595211029053,,91.52844857656527,37.93732221646075
1557947637305,,,,,,,,1003.544921875,,
1557947637316,,29.3150601226017,,,,,,,,
1557947637317,,,0.0,,,,,,,
1557947637356,,18.869477107878996,,,,,,,,
1557947637357,,,,3.261632203193096,-3.289733648300171,-6.158074855804443,-0.7996878027915955,,97.97976032312829,38.924511569448185
1557947637376,0.0,,,,,,,,,
1557947637400,,19.250201807236017,,,,,,,,
1557947637406,,,,,,,,1003.544921875,,
1557947637436,,17.02500873231152,0.0,,,,,,,
1557947637439,,,,3.2940178373186204,-5.195576190948486,-6.756643295288086,0.004788549616932869,,88.46719877170057,39.03367649024174
1557947637476,,15.615164764057656,,,,,,,,
1557947637491,0.0,,,2.841557254717198,-4.857983589172363,-7.230710029602051,0.36871832609176636,,95.73309253905762,39.78986288008225
1557947637505,,,,,,,,1003.560791015625,,
1557947637516,,12.808992907246664,0.0,,,,,,,
1557947637540,,,,4.869025065691491,-8.217150688171387,-10.786208152770996,-3.6464805603027344,,66.96525783050186,40.242513616236955
1557947637556,,24.762068957293227,,,,,,,,
1557947637595,,31.24022465552537,0.0,,,,,,,
1557947637610,0.0,,,8.782726883144338,-2.3966691493988037,-16.091920852661133,-1.582615613937378,1003.567138671875,117.1611308334368,40.322989901084846
1557947637635,,20.807581546297325,,,,,,,,
1557947637657,,,,6.096603273312769,-0.8020820617675781,-11.006481170654297,-3.1508655548095703,,69.1533908933855,41.17595768065992
1557947637676,,29.593426782695936,,,,,,,,
1557947637705,,,,,,,,1003.567138671875,,
1557947637716,,30.006310409478782,0.0,,,,,,,
1557947637717,0.0,,,,-4.7598185539245605,-9.198803901672363,-1.8172545433044434,,114.91614327590199,42.166811512533705
1557947637718,,,,2.15049705969568,,,,,,
1557947637756,,22.111910943138874,,,,,,,,
1557947637783,,,,6.078240165501976,-0.14605076611042023,-5.561900615692139,-0.5291347503662109,,84.79408696060784,42.17112270102745
1557947637796,,18.226550127254157,0.0,,,,,,,
1557947637805,,,,,,,,1003.580078125,,
1557947637823,0.0,,,,,,,,,
1557947637836,,11.625718567632271,,,,,,,,
1557947637837,,,,5.981892920114405,0.2609759569168091,-5.590631484985352,-0.03830839693546295,,350.2874581936372,42.68265224260049
1557947637876,,18.310509996559926,0.0,,,,,,,
1557947637907,,,,1.5435936543603352,-2.9281980991363525,-9.119792938232422,-2.20033860206604,1003.58837890625,102.45543302207585,42.77461327247439
1557947637916,,16.78772245609808,,,,,,,,
1557947637928,0.0,,,,,,,,,
1557947637955,,20.062986433970778,,,,,,,,
1557947637957,,,,7.923258824215439,-8.650514602661133,-7.726325035095215,-5.044736862182617,,68.95950231341635,41.72455321635125
1557947637995,,22.082228306059037,0.0,,,,,,,
1557947638005,,,,,,,,1003.58837890625,,
1557947638017,,,,3.251210354127316,-5.250644683837891,-7.685622215270996,0.36871832609176636,,112.06117884435002,40.799382463045255
1557947638033,0.0,,,,,,,,,
1557947638036,,21.525812566947586,,,,,,,,
1557947638075,,27.40738092103613,0.0,,,,,,,
1557947638077,,,,5.545073740600416,0.11492519080638885,-13.819754600524902,-0.6608198285102844,,40.38850682655118,40.14273414069816
1557947638106,,,,,,,,1003.59033203125,,
1557947638116,,26.175435413653155,,,,,,,,
1557947638140,,,,4.04931449269105,-3.3639562129974365,-12.09348201751709,2.722290515899658,,177.4268268618024,39.77855181030044
1557947638141,0.0,,,,,,,,,
1557947638156,,29.153283329888318,0.0,,,,,,,
1557947638196,,24.091862216067664,,,,,,,,
1557947638205,,,,5.939227364893058,-8.226728439331055,-12.229955673217773,-0.04309694468975067,1003.589599609375,102.13627194253951,40.42085437802243
1557947638236,,35.9674989891355,,,,,,,,
1557947638249,0.0,,,,,,,,,
1557947638256,,,,,-1.7933118343353271,,,,,
1557947638257,,,,2.113073765410859,,-7.623371124267578,0.5219519138336182,,145.10272438828528,40.37188602758051
1557947638280,,34.9545914287229,,,,,,,,
1557947638281,,,0.0,,,,,,,
1557947638313,,,,,,,,1003.589599609375,,
1557947638315,,37.31574879176156,,,,,,,,
1557947638317,,,,2.609947096189819,-1.0606637001037598,-10.364815711975098,1.764580488204956,,195.39369775749992,41.168307523669284
1557947638356,,29.46409930144028,,,,,,,,
1557947638357,0.0,,,,,,,,,
1557947638358,,,85.46875,,,,,,,
1557947638380,,,,,-3.5842294692993164,-5.123748302459717,-0.4070267081260681,,99.13522342501932,42.295189453595434
1557947638381,,,,4.440436667543173,,,,,,
1557947638395,,20.07038107577918,85.46875,,,,,,,
1557947638404,,,,,,,,1003.602783203125,,
1557947638436,,25.087441833135227,85.46875,,,,,,,
1557947638443,,,,3.5473801845454984,-4.470110893249512,-6.644112586975098,-1.2761484384536743,,91.4538082693154,41.66908060629142
1557947638462,0.0,,,,,,,,,
1557947638476,,23.274261269471314,,,,,,,,
1557947638499,,,,2.826406894869132,-4.324060440063477,-7.38154935836792,0.9409499764442444,,119.63154195433873,42.28774208133517
1557947638504,,,,,,,,1003.59912109375,,
1557947638516,,15.047805231875413,,,,,,,,
1557947638556,,19.453742266327588,0.0,,,,,,,
1557947638557,,,,,-9.13176441192627,-6.112583637237549,-1.1731946468353271,,69.38051517385594,
1557947638558,,,,6.631542789708027,,,,,69.2519505231088,41.286496060589364
1557947638564,0.0,,,,,,,,,
1557947638597,,20.31520670551668,,,,,,,,
1557947638605,,,,,,,,1003.59912109375,,
1557947638617,,,,8.25124003020957,-6.033572673797607,-13.982564926147461,-7.666468143463135,,61.5481801582514,41.904490074092934
1557947638636,,29.638421482234833,0.0,,,,,,,
1557947638666,0.0,,,,,,,,,
1557947638676,,25.434577464203656,,,,,,,,
1557947638677,,,,,-1.3743137121200562,-15.469409942626953,,,,
1557947638678,,,,9.055481185555692,,,0.6584255695343018,,160.92157910981823,42.95086482094613
1557947638705,,,,,,,,1003.598876953125,,
1557947638715,,19.759447450689656,,,,,,,,
1557947638716,,,0.0,,,,,,,
1557947638737,,,,,-1.144463300704956,-10.597060203552246,-2.1572415828704834,,70.17028994758448,
1557947638756,,32.17810892339429,,,,,,,,
1557947638776,0.0,,,,,,,,,
1557947638796,,34.52710046219964,,,,,,,,
1557947638797,,,0.0,2.597166637657701,-3.2610023021698,-8.657697677612305,-1.4796618223190308,,111.25063346535543,45.2924082659573
1557947638804,,,,,,,,1003.61083984375,,
1557947638836,,26.646579621895384,,,,,,,,
1557947638857,,,,6.481723620216091,0.48843204975128174,-5.097411155700684,-0.9098244309425354,,26.354122695501417,46.32279568946898
1557947638876,,22.92782065197155,,,,,,,,
1557947638884,0.0,,,,,,,,,
1557947638904,,,,,,,,1003.61083984375,,
1557947638916,,22.711815033037457,0.0,,,,,,,
1557947638922,,,,5.817505024972146,1.1947431564331055,-7.218738555908203,0.5770202279090881,,302.85380504483555,45.99527196598692
1557947638955,,23.769678025743296,,,,,,,,
1557947638985,,,,4.139175103608215,-6.57228422164917,-7.946598052978516,-1.8100717067718506,,105.06028275641114,44.5046732643613
1557947638986,0.0,,,,,,,,,
1557947638999,,22.290927132354344,0.0,,,,,,,
1557947639015,,,,,,,,1003.62060546875,,
1557947639036,,21.130010943560396,,,,,,,,
1557947639049,,,,6.791725610894601,-8.305739402770996,-6.768614768981934,-2.4277946949005127,,88.73439577203146,43.19303987616406
1557947639081,,17.549408886847907,0.0,,,,,,,
1557947639101,,,,4.274985080269104,-1.7454262971878052,-13.269070625305176,1.2019259929656982,,170.551093990404,42.38234396248797
1557947639102,0.0,,,,,,,,,
1557947639105,,,,,,,,1003.627197265625,,
1557947639116,,22.890082028349468,,,,,,,,
1557947639156,,23.705279850454893,,,-3.32085919380188,,,,,
1557947639157,,,,4.587696056698022,,-13.422304153442383,2.1596357822418213,,167.6440015551065,41.97650656087058
1557947639195,,22.644724723598607,0.0,,,,,,,
1557947639204,,,,,,,,1003.627197265625,,
1557947639214,0.0,,,,,,,,,
1557947639217,,,,3.306538525631355,-5.360781192779541,-10.360027313232422,2.073441982269287,,141.71368014477335,41.83931989368688
1557947639236,,18.281130936465892,,,,,,,,
1557947639276,,15.880810595688972,0.0,,,,,,,
1557947639278,,,,3.7927743879623788,-6.342433929443359,-10.795784950256348,0.6727912425994873,,119.80170928732042,42.85949051298291
1557947639304,,,,,,,,1003.63232421875,,
1557947639313,0.0,,,,,,,,,
1557947639315,,26.14432057845437,,,,,,,,
1557947639336,,,,,-0.8882759809494019,-8.114197731018066,1.2689656019210815,,,
1557947639337,,,,2.4977007783482836,,,,,184.44136647997948,43.34118599392483
1557947639355,,30.18778313118348,,,,,,,,
1557947639356,,,0.0,,,,,,,
1557947639396,,33.89643346988833,,,,,,,,
1557947639397,,,,3.8395466966100593,-0.3902668058872223,-6.411868095397949,0.5482889413833618,,186.62097546677887,43.40870418077664
1557947639404,,,,,,,,1003.629638671875,,
1557947639420,0.0,,,,,,,,,
1557947639435,,30.217919502832174,,,,,,,,
1557947639457,,,,6.003799507021184,-6.766220569610596,-7.041562080383301,-3.1460771560668945,,88.05013376060128,43.921843211784804
1557947639478,,25.923530275833272,,,,,,,,
1557947639480,,,38.30078125,,,,,,,
1557947639504,,,,,,,,1003.629638671875,,
1557947639515,,33.97164381485728,38.30078125,,,,,,,
1557947639516,,,,2.1192203911038976,-3.5842294692993164,-7.3336639404296875,0.1891477108001709,,122.79296331357082,44.39566164854029
1557947639529,0.0,,,,,,,,,
1557947639556,,21.108873369359923,38.30078125,,,,,,,
1557947639580,,,,4.868164356350292,-7.271412372589111,-7.151699066162109,0.5099805593490601,,102.6038462025511,45.68415953709868
1557947639595,,16.306423089890203,,,,,,,,
1557947639604,,,,,,,,1003.6318359375,,
1557947639629,0.0,,,,,,,,,
1557947639636,,18.33384207736732,0.0,,,,,,,
1557947639637,,,,2.964262934349367,-6.529187202453613,-9.25147819519043,-1.6281068325042725,,94.13265627311858,44.41888618048379
1557947639682,,20.189819794882467,,,,,,,,
1557947639702,,,,4.899711382404006,-4.755029678344727,-11.822929382324219,-5.334444046020508,,72.10516642623321,46.28353439240863
1557947639705,,,,,,,,1003.64599609375,,
1557947639716,,29.10519742714488,,,,,,,,
1557947639755,0.0,,,,,,,,,
1557947639756,,22.239089697877663,0.0,,,,,,,
1557947639757,,,,7.966175097166201,-0.8643332123756409,-13.925102233886719,0.08379961550235748,,134.6661543553708,47.65741369669761
1557947639796,,23.84710727684783,,,,,,,,
1557947639810,,,,,,,,1003.64599609375,,
1557947639817,,,,3.1074927685776994,-3.5124011039733887,-9.083878517150879,-0.7733507752418518,,113.62122820172678,49.07666220248696
1557947639836,,23.48985515887668,0.0,,,,,,,
1557947639862,0.0,,,,,,,,,
1557947639880,,19.141379930743973,,,,,,,,
1557947639888,,,,,-1.3455824851989746,-7.728719234466553,,,,
1557947639889,,,,4.216805695263471,,,-1.441353440284729,,87.25561883558873,50.15935294181136
1557947639917,,14.993410200411555,0.0,,,,,1003.643310546875,,
1557947639945,,,,,0.3591412305831909,-5.087833881378174,-0.2849186956882477,,356.1827443035501,50.69122918479954
1557947639946,,,,6.275546544806688,,,,,,
1557947639956,,12.050422477761476,,,,,,,,
1557947639972,0.0,,,,,,,,,
1557947639996,,19.74954780913228,,,,,,,,
1557947639997,,,,1.7815049641486764,-4.223500728607178,-8.020820617675781,-2.2218871116638184,,97.26346472449069,49.718100194135175
1557947640005,,,,,,,,1003.652587890625,,
1557947640036,,17.774613463753308,0.0,,,,,,,
1557947640057,,,,5.1846436139513505,-7.55154275894165,-7.944203853607178,-2.104567527770996,,97.04862112414793,47.63901498371988
1557947640076,,22.46786554510013,,,,,,,,
1557947640089,0.0,,,,,,,,,
1557947640110,,,,,,,,1003.66064453125,,
1557947640116,,17.251019394342578,0.0,,-3.7063374519348145,-8.174054145812988,-3.723097324371338,,,
1557947640117,,,,4.189020592473844,,,,,74.13792634587742,46.240110804844164
1557947640155,,17.737839581186606,,,,,,,,
1557947640180,,,,,-7.606611251831055,,,,,
1557947640181,,,,7.010751913669427,,-13.71440601348877,-2.5642683506011963,,97.33936178654784,45.03986162997822
1557947640190,0.0,,,,,,,,,
1557947640195,,24.311466903355434,0.0,,,,,,,
1557947640204,,,,,,,,1003.6552734375,,
1557947640236,,21.92045350116688,,,,,,,,
1557947640237,,,,,-3.22029972076416,,,,,
1557947640238,,,,2.9154698959259195,,-12.148550033569336,0.8068706393241882,,133.2442045928225,45.174143371279555
1557947640275,,18.20687625216096,,,,,,,,
1557947640303,0.0,,,3.2056132258695262,-2.013585090637207,-6.905088424682617,2.047105073928833,,159.3501711478517,45.53754664694462
1557947640304,,,,,,,,1003.6552734375,,
1557947640316,,20.759109346182257,0.0,,,,,,,
1557947640356,,24.18129294061224,,3.6158667639348674,-6.545947551727295,-10.532414436340332,1.0319324731826782,,114.6513778229156,46.062103729224724
1557947640395,,24.135838927671145,,,,,,,,
1557947640396,,,0.0,,,,,,,
1557947640404,,,,,,,,1003.6650390625,,
1557947640416,0.0,,,4.942708804978354,1.3575538396835327,-7.719141960144043,1.3479766845703125,,258.1564836256656,47.283691476160506
1557947640435,,27.318663922017627,,,,,,,,
1557947640475,,26.331746354527912,0.0,,,,,,,
1557947640478,,,,1.6770089016463723,-3.9505534172058105,-8.09264850616455,-0.12210801243782043,,110.79064754551177,48.56016794150534
1557947640504,,,,,,,,1003.6630859375,,
1557947640516,,44.01887565143067,,,,,,,,
1557947640517,0.0,,,,,,,,,
1557947640536,,,,,,,,,106.7878766541283,49.33423135234633
1557947640537,,,,1.74776274860083,-5.0016398429870605,-6.601015567779541,-2.0686533451080322,,85.85981503718324,
1557947640556,,41.38890223039442,,,,,,,,
1557947640596,,17.445147271214395,,,,,,,,
1557947640597,,,0.0,,,,,,,
1557947640600,,,,2.729933002613981,-4.338426113128662,-7.271412372589111,0.7518022656440735,,115.902791422267,48.62762095680627
1557947640604,,,,,,,,1003.677001953125,,
1557947640623,0.0,,,,,,,,,
1557947640636,,20.32675396558504,,,,,,,,
1557947640657,,,,3.1684094368270967,-4.369551658630371,-6.778192043304443,0.73504239320755,,111.83611045081977,48.1836985778653
1557947640676,,22.52994675279134,0.0,,,,,,,
1557947640704,,,,,,,,1003.681884765625,,
1557947640717,,24.73864999773543,,9.842102106610819,-10.18285083770752,-16.048824310302734,-2.2218871116638184,,97.58018059630416,46.16168364042697
1557947640740,0.0,,,,,,,,,
1557947640756,,33.255852356797305,0.0,,,,,,,
1557947640781,,,,,1.1636176109313965,-14.739155769348145,-3.0311520099639893,,13.916108306513593,
1557947640782,,,,8.272885110513611,,,,,14.968530320812192,43.57743461696336
1557947640800,,26.75468665011644,,,,,,,,
1557947640805,,,,,,,,1003.68115234375,,
1557947640836,,29.15026338128016,,,-0.4022381603717804,-16.372051239013672,-1.9968252182006836,,46.51299060623444,
1557947640837,,,,9.103599222221293,,,,,,40.47234621518657
1557947640853,0.0,,,,,,,,,
1557947640876,,29.53802137708213,0.0,,,,,,,
1557947640896,,,,,-3.158048391342163,,,,,
1557947640897,,,,3.657746489661277,,-9.976943016052246,-4.173221111297607,,70.655055793737,38.971651132211804
1557947640904,,,,,,,,1003.677490234375,,
1557947640916,,25.64859223528928,,,,,,,,
1557947640954,0.0,,,,,,,,,
1557947640956,,22.07609639972615,0.0,,,,,,,
1557947640957,,,,7.040753939311865,1.9776710271835327,-7.027196407318115,-0.4716721475124359,,327.3153113496304,39.327149838108525
1557947640996,,24.530278324840417,,,,,,,,
1557947641004,,,,,,,,1003.682861328125,,
1557947641018,,,,5.157913217193899,-0.12210801243782043,-6.457359313964844,0.6464542150497437,,212.60442208847644,38.83344388116866
1557947641036,,25.683979732665794,0.0,,,,,,,
1557947641059,0.0,,,,,,,,,
1557947641076,,17.06603616271606,,,,,,,,
1557947641080,,,,4.677304586205465,-3.5483152866363525,-7.139727592468262,-1.9321798086166382,,204.9068398750071,38.51672764660709
1557947641104,,,,,,,,1003.69384765625,,
1557947641116,,23.955066701778627,,,,,,,,
1557947641146,,,,6.603633469999945,-9.696812629699707,-9.227535247802734,-0.924190104007721,,87.52494002475146,38.37003428274957
1557947641156,,26.58520269759493,0.0,,,,,,,
1557947641168,0.0,,,,,,,,,
1557947641198,,16.89969920318199,,,,,,,,
1557947641210,,,,8.6964043739723,-11.456604957580566,-8.502069473266602,-3.1173458099365234,1003.694091796875,72.31778338490653,38.498216699037435
1557947641236,,18.30702116185382,0.0,,,,,,,
1557947641256,,,,5.210738377005101,-1.8220431804656982,-11.767860412597656,-4.5706706047058105,,40.69506620706886,37.62827610711085
1557947641270,0.0,,,,,,,,,
1557947641276,,22.859258128320946,,,,,,,,
1557947641304,,,,,,,,1003.692626953125,,
1557947641316,,20.183074405729002,0.0,,-1.0103839635849,-10.194822311401367,,,,
1557947641317,,,,5.919396679524067,,,4.745452880859375,,191.3310329372847,36.029787762451164
1557947641356,,27.239366332926966,,,,,,,,
1557947641384,,,,,-0.6703969240188599,-8.657697677612305,0.8499675393104553,,156.1239039726395,
1557947641385,0.0,,,2.8905090308768395,,,,,,35.56805830980843
1557947641395,,26.390475143277023,0.0,,,,,,,
1557947641404,,,,,,,,1003.692626953125,,
1557947641436,,22.650679637537735,,,,,,,,
1557947641444,,,,,-1.1229149103164673,-10.881978988647461,,,,
1557947641445,,,,4.418507294416909,,,3.878725290298462,,179.0382597323052,33.763156020704834
1557947641476,,21.749375180553393,,,,,,,,
1557947641484,0.0,,,,,,,,,
1557947641504,,,,,-2.011190891265869,,,,,
1557947641505,,,,2.3209185595475965,,-8.949799537658691,2.9880549907684326,1003.697509765625,149.67304984875094,33.88141043603403
1557947641516,,17.07352887614941,,,,,,,,
1557947641517,,,0.0,,,,,,,
1557947641556,,17.71260759419991,,,-2.853975534439087,-9.179649353027344,,,,
1557947641557,,,,0.4137860040759611,,,1.4030450582504272,,111.08100571731819,33.1219015296033
1557947641590,0.0,,,,,,,,,
1557947641596,,19.135014880854992,0.0,,,,,,,
1557947641611,,,,,,,,1003.68798828125,,
1557947641616,,,,2.161783829658247,-4.060689926147461,-9.378374099731445,2.5642683506011963,,109.11989448206742,32.99094415166987
1557947641636,,17.669201247373213,,,,,,,,
1557947641677,,11.35157901789986,0.0,,,,,,,
1557947641694,0.0,,,2.7699524380287923,-4.678412914276123,-8.66248607635498,1.3695251941680908,,85.72062261208754,33.727151479720845
1557947641704,,,,,,,,1003.68603515625,,
1557947641716,,15.917521562587423,,,,,,,,
1557947641737,,,,3.1055545819015054,-4.834040641784668,-8.363202095031738,0.9050358533859253,,73.5882054007181,32.98767019943616
1557947641757,,18.988252659866134,,,,,,,,
1557947641796,,17.41382097604048,0.0,,,,,,,
1557947641798,0.0,,,,,,,,,
1557947641799,,,,2.375479699929901,-4.154066562652588,-8.75346851348877,0.6943396925926208,,66.68689347087798,31.247617442231345
1557947641804,,,,,,,,1003.6884765625,,
1557947641836,,17.453386222498047,,,,,,,,
1557947641863,,,,1.3091794653221782,-3.3280420303344727,-9.938634872436523,1.7143007516860962,,80.19963727199365,31.33528348481324
1557947641876,,19.33435060744812,0.0,,,,,,,
1557947641906,0.0,,,,,,,1003.696533203125,,
1557947641917,,16.837268723560705,,,,,,,,
1557947641918,,,,1.417871393061431,-2.791724443435669,-9.624984741210938,0.337592750787735,,61.558644008059844,32.209382961536846
1557947641956,,19.65784930817251,0.0,,,,,,,
1557947641988,,,,,-5.916253089904785,,,,,
1557947641989,,,,4.4438304609480115,,,0.7853221297264099,,52.17818173027479,30.803441505133502
1557947641996,,22.786628867004044,,,,,,,,
1557947642012,0.0,,,,,,,1003.704345703125,,
1557947642036,,19.42151527982903,,,,,,,,
1557947642037,,,,14.785707862068081,-2.449343204498291,-10.33368968963623,-13.649760246276855,,338.4479237627461,30.732066648104944
1557947642076,,25.654167571176295,0.0,,,,,,,
1557947642109,,,,5.7696522446266885,2.6432793140411377,-11.126194953918457,0.1005595400929451,1003.70751953125,240.14400436915633,29.552299105438443
1557947642115,,32.317233725409466,,,,,,,,
1557947642130,0.0,,,,,,,,,
1557947642156,,24.532827958245107,0.0,4.05235432141177,0.39984390139579773,-10.54438591003418,-0.3615354895591736,,267.3121199816359,29.082240600950684
1557947642196,,25.40994482297883,,,,,,,,
1557947642203,,,,,,,,1003.70263671875,,
1557947642216,,,,2.8613322912192367,-6.136526107788086,-10.156514167785645,-2.695953369140625,,0.9047559924855477,29.234902508956264
1557947642235,0.0,,,,,,,,,
1557947642236,,34.503220014580116,0.0,,,,,,,
1557947642277,,27.256672159625403,,2.521766510890574,-2.14048171043396,-8.44460678100586,-0.6703969240188599,,356.3551160800864,29.402938031434402
1557947642304,,,,,,,,1003.701171875,,
1557947642316,,13.652353455287237,,,,,,,,
1557947642338,,,,,-0.9720755815505981,-6.8356547355651855,-1.1708003282546997,,326.63763705565464,
1557947642339,0.0,,,4.0077080369091815,,,,,327.4127747339919,28.916077161076274
1557947642356,,12.28125553622813,0.0,,,,,,,
1557947642396,,12.660524121084098,,,,,,,,
1557947642406,,,,3.027014378503752,-1.9656996726989746,-6.895511627197266,-1.2498114109039307,1003.70849609375,340.6089170689627,28.515785302952676
1557947642436,,11.369038296960145,0.0,,,,,,,
1557947642458,,,,,-3.3855044841766357,-7.786181449890137,-0.79011070728302,,,
1557947642459,0.0,,,,,,,,348.74920226235463,28.580286072846935
1557947642460,,,,1.4443651548452026,,,,,,
1557947642476,,15.448692092122833,,,,,,,,
1557947642516,,19.107526270435688,0.0,,,,,1003.705810546875,,
1557947642517,,,,3.2106435970742817,-6.39271354675293,-7.020013809204102,-2.3392064571380615,,355.2541856354156,28.92858822015689
1557947642556,,17.444526502134096,,,,,,,,
1557947642569,0.0,,,,,,,,,
1557947642596,,17.42229780311164,,9.294933161174594,-11.741523742675781,-9.569916725158691,-6.122160911560059,,353.00160376129736,29.66343136944896
1557947642604,,,,,,,,1003.70263671875,,
1557947642637,,16.78302578996165,0.0,,,,,,,
1557947642651,,,,1.0367815609541784,-4.8484063148498535,-9.572310447692871,-1.398256540298462,,351.24844275796954,28.664807908209518
1557947642677,0.0,25.586249093309085,,,,,,,,
1557947642703,,,,5.1838005386880335,-1.97048819065094,-13.350476264953613,-2.2769553661346436,,331.0937788286706,28.688093927974588
1557947642704,,,,,,,,1003.6943359375,,
1557947642716,,25.395141967987414,0.0,,,,,,,
1557947642756,,29.239309511202475,,,,,,,,
1557947642760,,,,4.7021171022125685,-0.35195839405059814,-7.668862342834473,1.6927522420883179,,32.0582510204527,29.371454949232746
1557947642788,0.0,,,,,,,,,
1557947642796,,16.898190817219675,0.0,,,,,,,
1557947642818,,,,,-0.8786988258361816,-10.055953979492188,,1003.702880859375,,
1557947642819,,,,4.038110853346651,,,2.1883671283721924,,30.838549989417686,29.29690079800866
1557947642836,,23.237956192528536,,,,,,,,
1557947642876,,20.968863772910566,,,,,,,,
1557947642879,,,,3.0975962148383163,-2.5499026775360107,-9.148524284362793,2.7127132415771484,,19.121867609806714,29.286514923585578
1557947642908,0.0,,,,,,,1003.697509765625,,
1557947642916,,19.915450119530114,,,,,,,,
1557947642917,,,0.0,,,,,,,
1557947642937,,,,1.960443989329887,-4.637710094451904,-8.899519920349121,-0.4022381603717804,,356.654998737247,29.045825484154417
1557947642956,,20.063423188838808,,,,,,,,
1557947642996,,21.544622728331376,0.0,,,,,,,
1557947643013,,,,,-4.127729892730713,-8.533195495605469,-0.18675343692302704,,356.62181020773966,
1557947643014,,,,1.844713056523977,,,,1003.690185546875,355.9968282618896,29.560337414125666
1557947643016,0.0,,,,,,,,,
1557947643037,,26.232070828579573,,,,,,,,
1557947643061,,,,,-4.553910732269287,-8.147717475891113,0.3208328187465668,,359.09759071110284,
1557947643062,,,,2.319714915583658,,,,,,30.5690417748821
1557947643076,,25.20727063750993,0.0,,,,,,,
1557947643109,,,,,,,,1003.703125,,
1557947643115,,,,,-3.7637999057769775,,,,,
1557947643116,,,,2.2362233233153397,,-7.450983047485352,0.11971373856067657,,358.0178938304577,30.06000004057399
1557947643118,,19.948287050772006,,,,,,,,
1557947643134,0.0,,,,,,,,,
1557947643156,,23.54205382676445,,,,,,,,
1557947643182,,,,2.878941860522211,-3.2945220470428467,-7.477320194244385,-1.7430320978164673,,343.2430000129456,30.670624261739896
1557947643196,,20.960543688316324,0.0,,,,,,,
1557947643207,,,,,,,,1003.698974609375,,
1557947643236,,17.247679880465377,,3.063111691791398,-0.25858166813850403,-8.42305850982666,0.19872480630874634,,19.11795049631769,31.061286634335875
1557947643257,0.0,,,,,,,,,
1557947643276,,17.415785503390083,0.0,,,,,,,
1557947643301,,,,4.128982009120484,-5.5954203605651855,-6.481301784515381,1.0750293731689453,,355.11703970574996,31.525361052851316
1557947643303,,,,,,,,1003.700439453125,,
1557947643315,,25.931202280827527,,,,,,,,
1557947643355,,,,,-5.554717540740967,,,,,
1557947643356,,18.671740883045526,0.0,2.6141519279255006,,-8.583475112915039,-0.8332076072692871,,340.7850061759548,32.65631885057411
1557947643365,0.0,,,,,,,,,
1557947643395,,21.274647606580245,,,,,,,,
1557947643407,,,,,,,,1003.695556640625,,
1557947643428,,,,10.897251209517924,-13.326533317565918,-8.408693313598633,-5.34162712097168,,337.88430338262583,33.26522500667737
1557947643436,,19.80539264134425,,,,,,,,
1557947643469,0.0,,,,,,,,,
1557947643475,,22.708081866987236,,8.236949887235214,0.36871832609176636,-14.497333526611328,-0.23942747712135315,,170.39879443229108,33.446918263958146
1557947643476,,,0.0,,,,,,,
1557947643508,,,,,,,,1003.700927734375,,
1557947643515,,27.324603195521423,,,,,,,,
1557947643535,,,,,-0.4189980924129486,-14.348889350891113,-2.0231621265411377,,231.97236604615307,
1557947643536,,,,7.967877029772251,,,,,,33.979603882356166
1557947643556,,28.598011315220603,0.0,,,,,,,
1557947643580,0.0,,,,,,,,,
1557947643596,,28.582793284980927,,,,,,,,
1557947643604,,,,1.2659111170490251,-4.374340057373047,-7.678439140319824,-1.939362645149231,1003.70703125,308.4590680890982,35.131932538023065
1557947643636,,23.28260533292919,0.0,,,,,,,
1557947643655,,,,5.7876208694392846,0.20590762794017792,-7.7622389793396,-1.0079896450042725,,176.2001931887598,34.9742868713306
1557947643676,,26.62727323381558,,,,,,,,
1557947643698,0.0,,,,,,,,,
1557947643703,,,,,,,,1003.70703125,,
1557947643716,,24.319005102131747,,,,,,,,
1557947643719,,,,,-0.7829278707504272,-6.780586242675781,,,,
1557947643720,,,,4.902585355724673,,,-0.1005595400929451,,279.73536664786445,33.66924964163844
1557947643756,,12.301301943865566,0.0,,,,,,,
1557947643775,,,,,-1.453324794769287,-4.927417755126953,,,,
1557947643776,,,,4.711201067331575,,,-1.5754327774047852,,273.2486198798875,34.10201615811866
1557947643796,,21.8285312407477,,,,,,,,
1557947643807,0.0,,,,,,,1003.707763671875,,
1557947643836,,,,6.482922053428537,-9.244295120239258,-10.127782821655273,-3.696760416030884,,287.1888037494517,34.76097694956678
1557947643837,,25.587548153379068,0.0,,,,,,,
1557947643877,,18.04260002708669,,,,,,,,
1557947643896,,,,4.574458923028664,-4.671230316162109,-5.097411155700684,-1.4940274953842163,,321.98061941914864,34.38329813211488
1557947643903,,,,,,,,1003.70947265625,,
1557947643915,0.0,14.836859269496275,0.0,,,,,,,
1557947643956,,20.08271782724038,,,,,,,,
1557947643957,,,,2.0056372113686733,-2.298503875732422,-10.017645835876465,-2.296109437942505,,290.7926096310364,34.737460705285024
1557947643996,,18.416481435577488,,,,,,,,
1557947644003,,,,,,,,1003.70947265625,,
1557947644021,0.0,,,3.4615205226335553,-4.676018714904785,-11.99292278289795,0.7470137476921082,,339.8247242673333,36.246009806951996
1557947644036,,16.072969409700036,0.0,,,,,,,
1557947644076,,19.30671283360978,,4.696411004310753,-5.185999393463135,-13.077528953552246,1.3575538396835327,,344.19623316634363,35.77137414762143
1557947644112,,,,,,,,1003.703369140625,,
1557947644116,,24.742451790667054,0.0,,,,,,,
1557947644135,0.0,,,,,,,,,
1557947644136,,,,1.8318910199404872,-4.767001152038574,-9.574705123901367,0.04309694468975067,,338.70073638468494,35.73855050303245
1557947644157,,28.64414878021201,,,,,,,,
1557947644196,,25.10766076826684,,,,,,,,
1557947644197,,,0.0,,,,,,,
1557947644202,,,,4.813851897360541,-3.78056001663208,-13.309773445129395,2.3416006565093994,,355.1021405018492,36.585931043926614
1557947644203,,,,,,,,1003.713623046875,,
1557947644236,,25.155472074084994,,,,,,,,
1557947644242,0.0,,,,,,,,,
1557947644256,,,,3.1997381401208815,-1.3096683025360107,-6.864386081695557,1.1588289737701416,,356.9054933637363,36.267156474153154
1557947644276,,27.074827909106958,0.0,,,,,,,
1557947644308,,,,,,,,1003.713623046875,,
1557947644316,,27.977608359249437,,,,,,,,
1557947644330,,,,0.38467353841948093,-3.000026226043701,-9.11260986328125,0.7374366521835327,,344.3539422342792,35.83306388743979
1557947644351,0.0,,,,,,,,,
1557947644356,,24.93632686535615,,,,,,,,
1557947644376,,,,4.3300651305764655,-4.245048999786377,-5.528380393981934,-0.26337021589279175,,343.5503004689882,36.879018956994344
1557947644396,,18.0703697640312,0.0,,,,,,,
1557947644403,,,,,,,,1003.7451171875,,
1557947644436,,18.304911965249637,,,,,,,,
1557947644439,,,,3.072683879418668,-2.818061351776123,-6.356799602508545,-0.3184385597705841,,338.90162761610065,35.119378485665464
1557947644461,0.0,,,,,,,,,
1557947644476,,19.68379691669635,,,,,,,,
1557947644477,,,0.0,,,,,,,
1557947644508,,,,3.464711493168803,-5.3152899742126465,-9.069513320922852,1.7741576433181763,1003.75830078125,350.6028259568632,37.055134935011175
1557947644516,,28.48812721614817,,,,,,,,
1557947644556,,27.376599882963667,0.0,5.2254907623959825,-8.150111198425293,-7.096630573272705,-1.4629019498825073,,338.57468182845776,37.012608652065545
1557947644573,0.0,,,,,,,,,
1557947644597,,21.775005092619274,,,,,,,,
1557947644603,,,,,,,,1003.75830078125,,
1557947644616,,,,7.157778114514384,-5.585843086242676,-14.296215057373047,-5.784567832946777,,311.9415527355505,37.584861646638466
1557947644636,,23.52925948581126,,,,,,,,
1557947644676,,27.40358660769789,0.0,,,,,,,
1557947644682,0.0,,,9.957311686909948,1.3886793851852417,-14.571556091308594,0.7134938836097717,,91.98958196818955,37.478201843432316
1557947644704,,,,,,,,1003.75830078125,,
1557947644716,,29.527139378172905,,,,,,,,
1557947644735,,,,,-3.849993944168091,-9.414288520812988,-1.6568381786346436,,305.0487409761325,
1557947644736,,,,2.4980251141301992,,,,,,38.00046781621378
1557947644756,,25.879367474902732,0.0,,,,,,,
1557947644790,0.0,,,,,,,,,
1557947644796,,23.29550069209715,,,,,,,,
1557947644812,,,,3.1192383102952514,-2.454131603240967,-7.790970325469971,-1.3886793851852417,1003.766357421875,290.22427642038883,38.288979862394044
1557947644837,,15.743659689339559,0.0,,,,,,,
1557947644857,,,,8.202301390945724,1.7909175157546997,-3.723097324371338,-0.8739103078842163,,70.9106141517222,38.09300499245056
1557947644876,,14.708390019280628,,,,,,,,
1557947644902,0.0,,,,,,,,,
1557947644903,,,,,,,,1003.766357421875,,
1557947644917,,16.89446789038254,,,,,,,,
1557947644924,,,,2.468948163155442,-1.3958622217178345,-8.911490440368652,-1.6352896690368652,,255.94525086300894,38.49821905781851
1557947644957,,16.559666587335087,0.0,,,,,,,
1557947644976,,,,7.105281917554692,-8.619389533996582,-8.504464149475098,-4.292934894561768,,324.5244858094794,37.47820097012193
1557947644996,,23.431695869208987,,,,,,,,
1557947645009,,,,,,,,1003.768798828125,,
1557947645010,0.0,,,,,,,,,
1557947645036,,22.941261639081205,0.0,,,,,,,
1557947645039,,,,5.763238014740566,-6.919454097747803,-5.983292579650879,-1.362342357635498,,334.15548113356783,39.333281580405014
1557947645077,,21.10858727851715,,,,,,,,
1557947645115,0.0,,,11.668066830856597,1.3455824851989746,-18.51492691040039,-6.153286457061768,1003.757568359375,267.343060738576,39.42534080922169
1557947645116,,26.27005118644698,0.0,,,,,,,
1557947645156,,26.553540774592296,,,,,,,,
1557947645166,,,,3.0342373629153863,-1.8795057535171509,-11.322525978088379,1.5969812870025635,,9.325498891760276,38.86425510601058
1557947645195,,23.400279634029133,,,,,,,,
1557947645212,,,,,,,,1003.757568359375,,
1557947645215,,,,6.61065733533916,-9.658504486083984,-9.531607627868652,-0.17957061529159546,,346.3260876401341,39.60990546918507
1557947645233,0.0,,,,,,,,,
1557947645236,,33.15827241196818,0.0,,,,,,,
1557947645276,,28.137794905241968,,,,,,,,
1557947645278,,,,3.687651420975756,-2.5331428050994873,-11.166897773742676,2.9593236446380615,,6.065543942901115,39.78542773931674
1557947645306,,,,,,,,1003.763427734375,,
1557947645316,,24.356275342823658,0.0,,,,,,,
1557947645336,,,,2.2586267184553344,-1.082212209701538,-8.169265747070312,0.026337023824453354,,10.355517031807608,39.290655675025505
1557947645351,0.0,,,,,,,,,
1557947645356,,17.488557669844905,,,,,,,,
1557947645396,,,,7.141655711904141,-3.8978793621063232,-6.076669692993164,-5.5666890144348145,,331.8251742680158,39.23912688010127
1557947645397,,21.847622272833107,0.0,,,,,,,
1557947645403,,,,,,,,1003.763671875,,
1557947645436,,26.15399481539245,,,,,,,,
1557947645455,0.0,,,,-6.170046329498291,-6.902694225311279,,,,
1557947645456,,,,4.801921761774255,,,-1.8890827894210815,,341.3712071614711,40.14865292734227
1557947645476,,17.906289878119907,,,,,,,,
1557947645503,,,,,,,,1003.763671875,,
1557947645516,,17.06264811478562,0.0,,,,,,,
1557947645523,,,,3.631262270041662,-2.454131603240967,-6.172440528869629,1.132491946220398,,358.06966901224393,40.66061314356482
1557947645556,,19.86421330897692,,,,,,,,
1557947645569,0.0,,,,,,,,,
1557947645575,,,,5.690601551189848,-7.915472507476807,-6.81171178817749,0.6153286099433899,,348.1593061444973,40.514929524557786
1557947645596,,19.97934412613828,0.0,,,,,,,
1557947645603,,,,,,,,1003.76513671875,,
1557947645637,,23.14391569834204,,,,,,,,
1557947645638,,,,5.610058076119323,-8.25067138671875,-11.961796760559082,-2.8994667530059814,,335.9760953775914,40.86057235350516
1557947645676,,29.857176394325805,0.0,,,,,,,
1557947645682,0.0,,,,,,,,,
1557947645705,,,,,-2.70074200630188,,,,,
1557947645706,,,,5.9045104033295885,,-13.542017936706543,-3.0527002811431885,1003.75927734375,299.43821527111436,40.341556914001295
1557947645716,,27.660978177818173,,,,,,,,
1557947645755,,,,7.43938056828296,-0.5458946824073792,-12.876409530639648,-0.3184385597705841,,275.26997338361775,40.712771630837835
1557947645756,,28.46877571106466,,,,,,,,
1557947645793,0.0,,,,,,,,,
1557947645796,,35.096775859374006,0.0,,,,,,,
1557947645803,,,,,,,,1003.75927734375,,
1557947645817,,,,,-3.778165578842163,,,,,
1557947645818,,,,2.2011867140208006,,-8.887548446655273,-2.2530126571655273,,301.2452579292571,40.781421854826036
1557947645836,,29.30002169608075,,,,,,,,
1557947645876,,18.443235825988555,,,,,,,,
1557947645877,,,0.0,,,,,,,
1557947645878,,,,,-0.8356019258499146,-6.079063892364502,-1.0558751821517944,,249.6015828977654,40.97376209854818
1557947645879,,,,5.001902409080063,,,,,,
1557947645903,0.0,,,,,,,1003.76806640625,,
1557947645916,,14.659406558493885,,,,,,,,
1557947645949,,,,6.280922041344975,0.5482889413833618,-5.188393592834473,-0.2011190801858902,,106.81982827906563,41.362286258480744
1557947645956,,19.369392525201683,0.0,,,,,,,
1557947645997,,,,1.4355922146857913,-4.3863115310668945,-8.650514602661133,-1.7238779067993164,,119.28497815585229,41.23335920406036
1557947646002,,16.951320925336,,,,,,,,
1557947646003,,,,,,,,1003.774658203125,,
1557947646022,0.0,,,,,,,,,
1557947646036,,18.0281637178928,,,,,,,,
1557947646056,,,,5.321766569205592,-6.830865859985352,-8.705583572387695,-3.629720687866211,,324.63985111965553,41.12000848508445
1557947646076,,13.821355286824959,0.0,,,,,,,
1557947646110,,,,,,,,1003.774658203125,,
1557947646115,,,,3.8471999154360375,-5.154873847961426,-7.685622215270996,-2.229069948196411,,329.56812630395405,40.92509991297479
1557947646116,,13.359170771186491,,,,,,,,
1557947646134,0.0,,,,,,,,,
1557947646156,,16.972332977406793,0.0,,,,,,,
1557947646178,,,,,-2.8731298446655273,,,,,
1557947646179,,,,4.289728165130384,,-13.328927993774414,-1.6879637241363525,,316.1932430410459,40.997960047182794
1557947646196,,18.155227830600058,,,,,,,,
1557947646202,,,,,,,,1003.7900390625,,
1557947646236,,22.803535332942374,0.0,,,,,,,
1557947646239,0.0,,,2.767402121063057,-3.785348415374756,-11.64335823059082,1.4269877672195435,,354.42069295524385,40.87136463997967
1557947646276,,21.49046215336691,,,,,,,,
1557947646316,,24.402717092920902,,,,,,,,
