timestamp,AmbientLightSensor,DecibelSource,PitchSensor,LinearAccelerometerSensor,AccX,AccY,AccZ,BarometerSensor,CompassSensor,MagneticRotationSensor
1557947310929,,17.49750333773331,,,,,,,,
1557947310950,,,,,2.133298873901367,1.1779831647872925,7.4557719230651855,,,
1557947310951,,,,1.0405415498648958,,,,,134.94918373419776,38.78274709952948
1557947310969,,22.76235085898108,0.0,,,,,,,
1557947310975,6.0,,,,,,,,,
1557947310986,,,,,2.355966329574585,0.8284190893173218,7.855615615844727,1003.029541015625,148.88063862200275,
1557947310994,,,,,2.1883671283721924,1.2976969480514526,7.877163887023926,,142.59142775501167,
1557947310998,,,,1.801497310838643,,,,,136.21474948550943,40.428602893060344
1557947311008,,24.194490138538963,,,,,,,,
1557947311047,,,,,1.0175668001174927,2.786935806274414,11.61223316192627,,125.70054752248856,
1557947311048,,,,,,-0.4860377907752991,13.079923629760742,,138.92099337807355,
1557947311049,,23.1729802474366,,,,,,,,
1557947311063,,,,3.6804180351492883,,,,,149.04084753917456,41.49710287886214
1557947311075,6.0,,,,,,,,,
1557947311085,,,,,,,,1003.028076171875,,
1557947311088,,21.038289216650725,0.0,,,,,,,
1557947311106,,,,,0.6847625970840454,0.34477555751800537,,,,
1557947311107,,,,,,1.501210331916809,9.99130916595459,,137.8171118647944,
1557947311117,5.0,,,6.042334929591969,,,,,124.16883661997818,42.77966263283583
1557947311128,,21.246893888717366,,,,,,,,
1557947311166,,,,,0.8547561168670654,2.387091875076294,14.131010055541992,,131.45164876590934,
1557947311168,,24.878299075684787,0.0,,,,,,,
1557947311177,,,,2.439736636128624,,,,,140.08093708406014,43.76612245490285
1557947311185,,,,,,,,1003.03076171875,,
1557947311187,5.0,,,,,,,,,
1557947311208,,19.703268424702465,,,,,,,,
1557947311225,,,,,0.56504887342453,2.164424419403076,10.87240219116211,,,
1557947311226,,,,,-0.9720755815505981,2.7486274242401123,11.109435081481934,,129.1835478482232,
1557947311236,,,,2.3973024148839053,,,,,125.89392383826998,43.97713479548841
1557947311248,,19.98994345911416,0.0,,,,,,,
1557947311285,,,,,3.22029972076416,2.3008980751037598,10.348055839538574,1003.02978515625,142.66923727003646,
1557947311288,,21.10127603435589,,,,,,,,
1557947311290,5.0,,,,,,,,,
1557947311296,,,,3.1189473856077554,,,,,120.80913486914062,44.51939291064566
1557947311329,,22.088960374496946,,,,,,,,
1557947311345,,,,,-0.5195576548576355,,,,,
1557947311346,,,,,,2.976083517074585,8.004060745239258,,120.63935002675242,
1557947311359,,,,1.5825071772793788,,,,,,
1557947311360,,,,,,,,,148.06225901603014,44.35534138810977
1557947311368,,17.998795072524715,0.0,,,,,,,
1557947311384,,,,,,,,1003.0283203125,,
1557947311391,5.0,,,,,,,,,
1557947311409,,26.75649509752651,,,3.318464994430542,1.4652961492538452,6.885934352874756,,160.27844849756983,
1557947311416,,,,4.361306039674824,,,,,107.81493219962312,45.429866766325965
1557947311449,,19.903408686781134,0.0,,,,,,,
1557947311465,,,,,0.7470137476921082,4.367157459259033,6.433416366577148,,107.6521961124584,
1557947311479,,,,2.7258084629020107,,,,,,
1557947311480,,,,,,,,,113.14578556379138,45.3721007418923
1557947311484,,,,,,,,1003.021484375,,
1557947311489,,25.265854063178846,,,,,,,,
1557947311493,5.0,,,,,,,,,
1557947311525,,,,,-0.572231650352478,4.582642078399658,6.718335151672363,,109.54996417334644,
1557947311529,,30.35638446359977,0.0,,,,,,,
1557947311536,,,,3.4064289011039652,,,,,109.42196642830044,44.54708045162911
1557947311569,,27.891720539555145,,,,,,,,
1557947311585,,,,,0.26337021589279175,3.5722579956054688,7.814912796020508,1003.018310546875,124.87159478368079,
1557947311593,5.0,,,,,,,,,
1557947311596,,,,0.775394084163608,,,,,134.2696072325382,43.711552601758804
1557947311609,,27.837298286715992,0.0,,,,,,,
1557947311645,,,,,0.876304566860199,3.222693920135498,7.194795608520508,,131.14228217764278,
1557947311649,,27.437905359883707,,,,,,,,
1557947311660,,,,1.2997722206102,,,,,133.29614135127127,
1557947311661,,,,,,,,,,43.549171976935554
1557947311684,,,,,,,,1003.01513671875,,
1557947311688,,28.14643145949099,,,,,,,,
1557947311696,5.0,,,,,,,,,
1557947311715,,,,,1.6305011510849,3.627326250076294,9.83328628540039,,139.54111991319735,
1557947311716,,,,4.350937420040131,,,,,,
1557947311717,,,,,,,,,143.6536451143537,44.75678073668419
1557947311728,,29.586567733414363,0.0,,,,,,,
1557947311765,,,,,2.9880549907684326,4.465322494506836,10.319324493408203,,140.8197586465804,
1557947311769,,23.969116512010835,,,,,,,,
1557947311776,,,,2.979395201838419,,,,,132.58350673402884,46.93158395928968
1557947311784,,,,,,,,1003.02197265625,,
1557947311805,5.0,,,,,,,,,
1557947311810,,27.11221694319109,0.0,,,,,,,
1557947311825,,,,,4.0439300537109375,4.240260601043701,13.036826133728027,,147.45655784043342,
1557947311826,,,,,,,,,149.84793001225995,
1557947311836,,,,3.4634858473484074,,,,,,
1557947311837,,,,,,,,,141.41081589659663,47.13545159010779
1557947311849,,24.393147881021726,,,,,,,,
1557947311884,,,,,2.9856607913970947,,,,,
1557947311885,,,,,3.3950817584991455,4.750241279602051,8.490097999572754,1003.02734375,136.16850910482844,
1557947311889,,20.879390850764416,0.0,,,,,,,
1557947311896,,,,1.6700950488150117,,,,,,
1557947311897,,,,,,,,,127.96396293040408,48.617661256956794
1557947311914,5.0,,,,,,,,,
1557947311929,,18.05429188777858,,,,,,,,
1557947311945,,,,,2.8084843158721924,4.8484063148498535,5.633728504180908,,,
1557947311946,,,,,,,6.265817165374756,,124.80226836360515,
1557947311961,,,,1.0227812781669159,,,,,141.9569714830092,49.125527717749414
1557947311969,,21.625396843557347,,,,,,,,
1557947311984,,,,,,,,1003.035400390625,,
1557947312005,,,,,2.7989072799682617,4.182797908782959,8.360807418823242,,144.27241927202186,
1557947312009,,29.864091378651338,0.0,,,,,,,
1557947312017,,,,,,,,,142.96038091359742,
1557947312018,4.0,,,1.8715366802896372,,,,,,51.09298604091274
1557947312022,4.0,,,,,,,,,
1557947312049,,30.121865818116717,,,,,,,,
1557947312065,,,,,2.5929996967315674,4.534756660461426,6.569890022277832,,139.3696138631383,
1557947312079,,,,1.7158656800926322,,,,,140.02736108021054,52.540166388670414
1557947312084,,,,,,,,1003.044921875,,
1557947312089,,30.659256945508254,0.0,,,,,,,
1557947312128,4.0,,,,2.4421603679656982,4.733481407165527,4.90108060836792,,133.79802365148382,
1557947312129,,31.738166741323933,,,,,,,,
1557947312136,,,,2.876056311235145,,,,,125.67009853916863,53.148247291697686
1557947312169,,32.214065486861834,0.0,,,,,,,
1557947312186,,,,,1.874717116355896,,,,,
1557947312187,,,,,1.6759923696517944,5.561900615692139,6.328068256378174,1003.04833984375,137.70780151731753,
1557947312188,,,,,,,6.292154312133789,,,
1557947312197,3.0,,,2.714337594031247,,,,,136.6069526080299,55.72113580774319
1557947312209,,32.81496386347134,,,,,,,,
1557947312247,3.0,,,,1.7573976516723633,6.14131498336792,4.503631114959717,,123.61444382542658,
1557947312249,,33.02286620479271,,,,,,,,
1557947312266,,,,1.7214056133328988,,,,,128.42636673721393,59.23829353973354
1557947312286,,,,,,,,1003.050537109375,,
1557947312295,,30.04890426678341,,,,,,,,
1557947312301,,,157.7081298828125,,,,,,,
1557947312306,,,,,4.558699131011963,6.759037971496582,4.168432235717773,,141.7643191672798,
1557947312316,,,,1.890745868444815,,,,,39.03775495591111,61.8961258649679
1557947312329,,25.536546482724034,157.7081298828125,,,,,,,
1557947312347,3.0,,,,,,,,,
1557947312365,,,,,3.907456398010254,8.748680114746094,1.2641770839691162,,69.32215120739818,
1557947312369,,21.239478884340407,157.7081298828125,,,,,,,
1557947312379,,,,1.8172854684938806,,,,,100.3708114760638,63.76159637466575
1557947312384,,,,,,,,1003.053466796875,,
1557947312409,,24.476527846356735,,,,,,,,
1557947312425,,,,,6.553130149841309,10.118205070495605,-1.2546000480651855,,170.79721302695626,
1557947312436,,,,5.532437471845734,,,,,204.5573117744209,64.24655222440649
1557947312448,,22.42620013217064,,,,,,,,
1557947312449,,,0.0,,,,,,,
1557947312461,3.0,,,,,,,,,
1557947312485,,,,,8.030397415161133,9.117398262023926,-4.6017961502075195,1003.054443359375,,
1557947312486,,,,,8.667274475097656,8.468549728393555,-2.3799092769622803,,204.31240851154087,
1557947312490,,20.406175871238776,,,,,,,,
1557947312499,,,,3.1152481509295717,,,,,151.0196762851323,65.2542132615402
1557947312529,,22.879552597017927,,,,,,,,
1557947312549,,,,,8.509252548217773,7.4222517013549805,-3.193962574005127,,171.433568091548,
1557947312569,,22.45136212391939,0.0,,,,,,,
1557947312574,3.0,,,2.788987273582838,,,,,205.1813451777499,65.6976149900037
1557947312584,,,,,,,,1003.048583984375,,
1557947312609,,20.146262437038324,,,,,,,,
1557947312619,,,,,4.647287368774414,,,,,
1557947312620,,,,3.28844513161874,5.0375542640686035,4.685595989227295,-3.4333901405334473,,209.08705225083827,65.39432997638482
1557947312649,,18.89422402507177,0.0,,,,,,,
1557947312666,,,,,3.476486921310425,3.9792847633361816,-5.9018874168396,,223.22488813460438,
1557947312667,,,,,3.8045027256011963,4.635315895080566,-3.972101926803589,,230.43046450140105,
1557947312689,,,,3.216651751099892,,,,1003.047607421875,233.98417094542367,66.23007995089178
1557947312690,3.0,,,,,,,,,
1557947312692,,18.12560960205847,,,,,,,,
1557947312729,,19.165046774374755,0.0,,,,,,,
1557947312736,,,,2.335557377229063,3.6440863609313965,5.183605194091797,-2.8731298446655273,,291.0367410825402,67.24468848117797
1557947312769,,19.20688741587624,,,,,,,,
1557947312786,,,,,6.019207000732422,5.348809719085693,-6.366376876831055,1003.052734375,214.52990705701643,
1557947312800,,,,2.1343401792933676,,,,,163.74404550129927,66.4596886799099
1557947312801,3.0,,,,,,,,,
1557947312810,,20.973686850642682,,,,,,,,
1557947312845,,,,,7.7957587242126465,6.009629726409912,-7.00085973739624,,200.29117561883095,
1557947312849,,20.16846282711174,0.0,,,,,,,
1557947312858,,,,1.1089364917894378,,,,,214.92833931205996,65.59679372027736
1557947312884,,,,,,,,1003.070556640625,,
1557947312889,,17.783768738945597,,,,,,,,
1557947312909,3.0,,,,7.439012050628662,6.469330310821533,-4.755029678344727,,156.72789760094375,
1557947312916,,,,2.4465981902987153,,,,,174.69852145821915,66.74659308116416
1557947312928,,15.90034401847898,0.0,,,,,,,
1557947312965,,,,,9.620196342468262,5.676825523376465,-6.268211364746094,,168.43986885757474,
1557947312969,,18.452949543145714,,,,,,,,
1557947312984,,,,3.068430394079844,,,,1003.08251953125,140.2636173236013,65.61567068284954
1557947313009,,17.824831870177537,0.0,,,,,,,
1557947313022,3.0,,,,,,,,,
1557947313025,,,,,9.30415153503418,6.900300025939941,-4.321666240692139,,128.8760663921676,
1557947313044,,,,2.088031988826978,,,,,136.8729201743102,66.53491267907705
1557947313048,,14.749740267542421,,,,,,,,
1557947313084,,,,,9.026415824890137,,,,,
1557947313085,,,,,7.9537811279296875,5.9401960372924805,-3.962524890899658,1003.08251953125,135.96178659940884,
1557947313089,,16.956385005607316,,,,,,,,
1557947313096,,,,1.2884262826872128,,,,,163.5814050367829,66.68842543465651
1557947313129,,13.953818709197636,0.0,,,,,,,
1557947313134,3.0,,,,,,,,,
1557947313158,,,,1.2865025851197407,7.462954521179199,4.886714935302734,-4.72150993347168,,162.16367633114172,66.51881437955117
1557947313169,,13.0526848277197,,,,,,,,
1557947313196,,,,,,,,1003.0849609375,,
1557947313209,,17.492638127480166,0.0,,,,,,,
1557947313226,,,,2.622640002998343,6.064698219299316,4.156461238861084,-3.287339210510254,,145.31857202643602,65.67917185229932
1557947313249,,18.086197077349347,,,,,,,,
1557947313251,3.0,,,,,,,,,
1557947313278,,,,3.276296600627483,5.8109049797058105,4.223500728607178,-4.338426113128662,,176.2537008907177,67.28421365602011
1557947313284,,,,,,,,1003.08935546875,,
1557947313290,,18.66980162056428,0.0,,,,,,,
1557947313329,,,,,10.199610710144043,,,,,
1557947313330,,19.15108966112596,,,9.581888198852539,5.415849685668945,-6.428627967834473,,164.82937622079262,
1557947313336,,,,3.0227406410865565,,,,,172.40176106677566,67.31419613222566
1557947313368,,15.651501416468799,,,,,,,,
1557947313370,3.0,,,,,,,,,
1557947313385,,,,,7.374366283416748,4.2019524574279785,-5.609786033630371,1003.08935546875,171.9693281300438,
1557947313386,,,,,7.55154275894165,4.127729892730713,-3.806896924972534,,149.32756522015336,
1557947313396,,,,1.8409837564210745,,,,,147.72345431244085,67.24600135086597
1557947313409,,17.701044267974137,0.0,,,,,,,
1557947313445,,,,,8.375173568725586,4.213923454284668,-4.213923454284668,,149.8017442730923,
1557947313449,,20.24434004788743,,,,,,,,
1557947313456,,,,2.435918441609818,,,,,184.41582157248365,67.53777494760286
1557947313475,3.0,,,,,,,,,
1557947313483,,,,,,,,1003.09716796875,,
1557947313489,,16.458409394526782,0.0,,,,,,,
1557947313518,,,,1.240541146853313,5.183605194091797,5.633728504180908,-6.287365436553955,,196.20513789127585,66.40243572115521
1557947313529,,16.637148105599415,,,,,,,,
1557947313565,,,,,6.409473896026611,6.526793003082275,-5.224307537078857,,161.30741649603223,
1557947313566,,,,,,5.968926906585693,-3.3256475925445557,,118.4852039851788,
1557947313569,,17.513899665453156,0.0,,,,,,,
1557947313581,,,,1.6627946778912195,,,,,,
1557947313582,,,,,,,,,136.0054178478269,67.15337538017857
1557947313584,3.0,,,,,,,,,
1557947313585,,,,,,,,1003.096435546875,,
1557947313609,,18.613623424816623,,,,,,,,
1557947313625,,,,,4.45095682144165,,,,,
1557947313626,,,,,,6.517216205596924,-3.3040993213653564,,115.17059514324166,
1557947313627,,,,,,,-3.5554981231689453,,91.40605841682782,
1557947313636,2.0,,,,,,,,76.95487394450907,65.61855158824883
1557947313637,,,,2.380329376637649,,,,,,
1557947313650,,15.144890223973302,,,,,,,,
1557947313689,,16.96639647743605,0.0,,,,,,,
1557947313690,2.0,,,,3.9768905639648438,8.758256912231445,-1.6257126331329346,1003.096435546875,60.7526202142958,
1557947313696,,,,2.6903285732757323,,,,,77.32849895248711,66.0869404778372
1557947313729,,20.349643208643286,,,,,,,,
1557947313745,,,,,3.074248790740967,8.269824981689453,1.1660118103027344,,101.64703232248064,
1557947313746,,,,,3.2322709560394287,8.80374813079834,3.0287575721740723,,123.77480300676015,
1557947313760,,,,4.215603255321167,,,,,124.63797499330968,65.72279008539495
1557947313769,,15.0745197926725,0.0,,,,,,,
1557947313784,,,,,,,,1003.097412109375,,
1557947313805,2.0,,,,,,,,,
1557947313806,,,,,4.046324253082275,9.06472396850586,2.8013014793395996,,123.1336668097494,
1557947313809,,16.86684898378813,,,,,,,,
1557947313816,3.0,,,2.983539084757543,,,,,134.34879644577532,66.0173976070494
1557947313849,,19.23909830929517,,,,,,,,
1557947313850,,,0.0,,,,,,,
1557947313873,,,,,3.715914487838745,8.25306510925293,3.0790374279022217,,130.64739399114035,
1557947313876,,,,2.0095508931538144,,,,,132.5991342068498,66.49461705574934
1557947313884,,,,,,,,1003.08544921875,,
1557947313889,,16.47695596437049,,,,,,,,
1557947313913,3.0,,,,,,,,,
1557947313929,,15.898192040414559,,,,,,,,
1557947313936,,,,,3.60098934173584,7.288172721862793,2.4637088775634766,,131.0326713018424,
1557947313937,,,,1.4283749751842707,,,,,136.07100132423736,66.57764447659683
1557947313969,,16.028532571739753,0.0,,,,,,,
1557947313985,,,,,3.598595142364502,6.416656494140625,3.134105682373047,1003.08544921875,140.15940229724524,
1557947313986,,,,,,,2.8013014793395996,,140.89698076533656,
1557947314001,4.0,,,3.0010671307111187,,,,,141.79587464124526,66.07430176531192
1557947314009,,22.13011512460586,,,,,,,,
1557947314020,4.0,,,,,,,,,
1557947314046,,,,,3.158048391342163,5.4685235023498535,3.0143918991088867,,143.08887043226372,
1557947314049,,16.08638809464299,0.0,,,,,,,
1557947314064,,,,2.4220371315123477,,,,,152.095499381301,66.57055999821165
1557947314086,,,,,,,,1003.093994140625,,
1557947314090,,20.031399647446165,,,,,,,,
1557947314105,,,,,4.874743461608887,4.834040641784668,5.8420305252075195,,152.76283618396795,
1557947314117,,,,4.111067390782196,,,,,156.9660389765454,68.1434400554159
1557947314126,4.0,,,,,,,,,
1557947314129,,15.14887930730028,0.0,,,,,,,
1557947314165,,,,,5.851607799530029,2.353572130203247,5.585843086242676,,155.70058250826048,
1557947314166,,,,,5.887521743774414,3.5435266494750977,4.78136682510376,,154.19639726810524,
1557947314169,,20.855821964102145,,,,,,,,
1557947314182,,,,1.9901263775784492,,,,,155.25338270254306,68.87166180701809
1557947314184,,,,,,,,1003.0986328125,,
1557947314209,,23.5106388376011,,,,,,,,
1557947314224,,,,,8.315316200256348,2.0949904918670654,3.7709827423095703,,160.338035067889,
1557947314225,,,,,,,,,159.4153174921553,
1557947314237,,,,3.867614352626131,,,,,153.7285429703377,68.78305673184468
1557947314243,4.0,,,,,,,,,
1557947314249,,22.16819445715086,0.0,,,,,,,
1557947314285,,,,,9.49329948425293,-0.5458946824073792,7.802941799163818,1003.0986328125,153.056834846602,
1557947314290,,23.633486486650945,,,,,,,,
1557947314296,,,,3.694135740635319,,,,,144.47541249415463,67.41824392986821
1557947314329,,20.569113302009328,0.0,,,,,,,
1557947314342,4.0,,,,,,,,,
1557947314344,,,,,9.816526412963867,0.33519846200942993,7.628159523010254,,148.35270598029578,
1557947314345,,,,,10.391152381896973,-0.4261809289455414,7.68083381652832,,150.37472884256468,
1557947314361,3.0,,,4.384083500672534,,,,,143.48006268678702,67.24139593945807
1557947314369,,23.29615771069888,,,,,,,,
1557947314385,,,,,,,,1003.0927734375,,
1557947314404,,,,,12.795004844665527,0.6584255695343018,5.344021320343018,,149.7643967987107,
1557947314405,,,,,12.682474136352539,2.7438390254974365,5.5307745933532715,,142.89601321085922,
1557947314409,,20.428339106924792,0.0,,,,,,,
1557947314416,,,,4.928779337034052,,,,,119.93963812741964,64.63893819131914
1557947314442,3.0,,,,,,,,,
1557947314449,,22.185896834099772,,,,,,,,
1557947314465,,,,,8.643332481384277,3.4908525943756104,8.315316200256348,,119.42693680756182,
1557947314484,,,,5.39574704291473,,,,1003.101806640625,115.33196519257237,65.83443710943712
1557947314489,,19.325330093851804,0.0,,,,,,,
1557947314529,,15.522901331554483,,,,,,,,
1557947314533,,,,,7.0224080085754395,3.684788942337036,6.447782039642334,,111.99146993368089,
1557947314537,,,,,,,,,112.42125275701477,66.08484301768728
1557947314557,,,,4.708300610093812,,,,,,
1557947314559,3.0,,,,,,,,,
1557947314569,,17.290526997077983,,,,,,,,
1557947314585,,,,,6.529187202453613,1.192348837852478,0.5698373913764954,1003.101806640625,146.49617860161626,
1557947314605,,,,3.745548148892088,,,,,,
1557947314606,,,,,,,,,120.99703337320767,67.51578275181451
1557947314609,,20.716190375845557,0.0,,,,,,,
1557947314649,,16.20939442394702,,,,,,,,
1557947314651,,,,,7.704776287078857,-1.6927522420883179,5.944984436035156,,123.36996403427514,
1557947314674,,,,3.5363392573419166,,,,,136.4065138766467,
1557947314675,3.0,,,,,,,,,67.11447059648201
1557947314684,,,,,,,,1003.10595703125,,
1557947314689,,19.778091185182355,,,,,,,,
1557947314690,,,0.0,,,,,,,
1557947314718,0.0,,,4.400877795657868,10.09186840057373,-2.667222023010254,-0.26337021589279175,,143.7550324423934,67.78085357666598
1557947314732,,18.637071646960376,,,,,,,,
1557947314764,,,,,11.470970153808594,-0.337592750787735,-3.4884583950042725,,133.99644064687268,
1557947314765,,,,,,-2.135693073272705,1.3527653217315674,,121.11613821195436,
1557947314769,,23.993096656983436,0.0,,,,,,,
1557947314780,,,,2.636765407573301,,,,,118.02047791405113,66.48988099189538
1557947314782,0.0,,,,,,,,,
1557947314784,,,,,,,,1003.10302734375,,
1557947314809,,21.934133123632105,,,,,,,,
1557947314824,,,,,12.280235290527344,-4.410254001617432,3.378321647644043,,,
1557947314825,,,,,,,,,118.55380640520241,
1557947314835,,,,,,,,,128.90517665841017,67.29641048792978
1557947314836,,,,4.243602874857292,,,,,,
1557947314849,,19.329526676019732,,,,,,,,
1557947314885,,,,,6.9601569175720215,-6.936213970184326,0.5506832003593445,1003.10302734375,135.58807962916077,
1557947314889,,22.768550229474943,0.0,,,,,,,
1557947314891,0.0,,,,,,,,,
1557947314895,,,,4.415699667005709,,,,,113.48372283335607,
1557947314896,,,,,,,,,,64.89773017527716
1557947314929,,20.93197268710089,,,,,,,,
1557947314944,,,,,13.843696594238281,,,,,
1557947314945,,,,,12.21319580078125,-1.3862850666046143,0.35674694180488586,,100.03380311222622,
1557947314961,,,,2.86225854113475,,,,,93.7262600175028,63.370992814010606
1557947314969,,26.655049445934345,0.0,,,,,,,
1557947314983,,,,,,,,1003.10595703125,,
1557947314997,0.0,,,,,,,,,
1557947315004,,,,,9.079090118408203,-0.2657645046710968,,,,
1557947315005,,,,,,-0.8068706393241882,1.0678465366363525,,87.43596315043374,
1557947315008,,24.668155205789258,,,,,,,,
1557947315019,,,,,5.298530101776123,,,,,
1557947315020,,,,6.5512412722346935,,-0.28013014793395996,5.990475654602051,,87.13857671397136,65.70605347432179
1557947315049,,22.20500938328586,0.0,,,,,,,
1557947315064,,,,,6.1868062019348145,-4.405465602874756,4.482082366943359,,97.40926194251375,
1557947315065,,,,,7.151699066162109,-8.334470748901367,3.8859081268310547,,106.84117945041112,
1557947315081,,,,6.1431432321533865,,,,,107.7021452858587,64.89082153011914
1557947315084,,,,,,,,1003.112060546875,,
1557947315089,,26.043160716321864,,,,,,,,
1557947315104,0.0,,,,,,,,,
1557947315124,,,,,6.471724987030029,,,,,
1557947315125,,,,,,-1.2019259929656982,-0.17238777875900269,,97.27973423509366,
1557947315128,,24.71439737741525,,,,,,,,
1557947315135,,,,5.522191793424884,,,,,87.3844020523893,65.90649768139679
1557947315168,,25.470361791935936,0.0,,,,,,,
1557947315187,,,,,2.2147042751312256,-5.205153465270996,5.899493217468262,1003.112060546875,78.25224788678548,
1557947315195,,,,7.028518892328896,,,,,83.91278082181191,65.78022351536077
1557947315208,0.0,26.735923809983007,,,,,,,,
1557947315249,,26.60008312784943,0.0,,3.067065954208374,-7.388731956481934,7.637736797332764,,84.75775035422333,
1557947315266,2.0,,,12.33955315818019,,,,,16.753130684889584,64.86657478931481
1557947315284,,,,,,,,1003.116455078125,,
1557947315289,,27.375838592287582,,,,,,,,
1557947315308,,,,,-3.3687446117401123,-7.043956279754639,0.6488484740257263,,334.62852979019914,
1557947315309,2.0,,,,,,,,,
1557947315316,,,,10.27509640836386,,,,,93.03093992980632,59.775690199328984
1557947315329,,38.31894610992955,0.0,,,,,,,
1557947315365,,,,,43.59495544433594,,,,,
1557947315366,,,,,6.411868095397949,-8.909096717834473,-8.724737167358398,,74.24313857985226,
1557947315368,,46.95022322733989,,,,,,,,
1557947315378,,,,14.7929775176565,,,,,350.2497786013071,57.5854327899383
1557947315384,,,,,,,,1003.115234375,,
1557947315408,,39.52867366615727,,,,,,,,
1557947315409,2.0,,,,,,,,,
1557947315425,,,,,5.490072250366211,-1.848380208015442,-7.539571285247803,,29.00413193308151,
1557947315436,0.0,,,1.3600052874125752,,,,,96.87887043270558,58.23716278807806
1557947315448,,49.23347982530323,,,,,,,,
1557947315449,,,236.865234375,,,,,,,
1557947315484,,,,,6.577073097229004,,,,,
1557947315485,,,,,1.113337755203247,-13.309773445129395,6.100612163543701,1003.115234375,68.52808024468163,
1557947315488,,40.76329085767831,236.865234375,,,,,,,
1557947315496,,,,5.729759749723437,,,,,48.390995514759084,57.34185871825258
1557947315511,0.0,,,,,,,,,
1557947315528,,42.08537555232822,236.865234375,,,,,,,
1557947315529,,,0.0,,,,,,,
1557947315545,,,,,0.7206767201423645,-7.419857501983643,0.5387118458747864,,80.19101757326109,
1557947315546,,,,,,,,,81.69154183202124,
1557947315563,,,,2.713941157850768,,,,,79.99594737056555,57.615934541328755
1557947315569,,43.68493726884736,,,,,,,,
1557947315584,,,,,,,,1003.123291015625,,
1557947315609,,43.696930942962666,,,,,,,,
1557947315610,,,313.0126953125,,,,,,,
1557947315616,,,,3.912937634644486,8.241093635559082,-6.038361072540283,-1.3096683025360107,,91.67802288919938,59.01865142874154
1557947315617,0.0,,,,,,,,,
1557947315648,,41.736089956023804,,,,,,,,
1557947315649,,,313.0126953125,,,,,,,
1557947315665,,,,,9.263449668884277,-6.454965114593506,-1.6951465606689453,,91.46216159067029,
1557947315676,,,,1.8698160352332083,,,,,103.39075912701742,58.940831325378
1557947315684,,,,,,,,1003.12060546875,,
1557947315689,,33.7025359609035,313.0126953125,,,,,,,
1557947315729,,34.65944529326282,313.0126953125,,,,,,,
1557947315730,0.0,,200.5810546875,,6.366376876831055,-6.421444892883301,-1.6951465606689453,,106.14680192882008,
1557947315736,,,,4.507913201594,,,,,76.64488580902804,58.55855435807037
1557947315768,,32.991087261168715,200.5810546875,,,,,,,
1557947315784,,,,,,,,1003.123291015625,,
1557947315785,,,,,9.519637107849121,-0.31125572323799133,-1.97048819065094,,66.90463307142886,
1557947315796,,,,7.793460687010647,,,,,44.11047498077704,
1557947315797,,,,,,,,,,58.76071094376289
1557947315809,,27.566887079319976,200.5810546875,,,,,,,
1557947315839,0.0,,,,,,,,,
1557947315845,,,,,7.525205612182617,-0.9888355135917664,-0.39266106486320496,,72.13800597576267,
1557947315849,,26.896450494616527,,,,,,,,
1557947315858,,,,2.4354154035849405,,,,,86.35295469525818,59.80305603006146
1557947315884,,,,,,,,1003.124267578125,,
1557947315889,,32.91246111371534,0.0,,,,,,,
1557947315905,,,,,10.810151100158691,-8.114197731018066,-1.0295381546020508,,99.11982134844095,
1557947315906,,,,,12.237138748168945,-10.06313705444336,,,,
1557947315916,,,,5.579578370603031,,,,,,
1557947315917,,,,,,,,,114.68794665573188,58.41036169095903
1557947315929,,27.63798831142326,,,,,,,,
1557947315943,0.0,,,,,,,,,
1557947315965,,,,,9.694418907165527,-10.106233596801758,-2.2147042751312256,,110.33329124849854,
1557947315966,,,,,7.704776287078857,-13.577932357788086,-2.578634023666382,,126.44722380255436,
1557947315969,,19.950429193308835,,,,,,,,
1557947315985,,,,8.176690573685235,,,,1003.124267578125,126.05067667972176,57.96816681981652
1557947316009,,22.837433918037018,0.0,,,,,,,
1557947316024,,,,,8.308133125305176,,,,,
1557947316025,,,,,9.153312683105469,-12.055173873901367,-1.3527653217315674,,113.61646072968611,
1557947316036,,,,2.6870139813643252,,,,,102.74273809932328,57.26593558818618
1557947316047,0.0,,,,,,,,,
1557947316049,,20.578001774178514,,,,,,,,
1557947316085,,,,,8.317710876464844,-6.328068256378174,-0.7565908432006836,1003.1142578125,,
1557947316086,,,,,6.447782039642334,-4.063084125518799,-0.30407288670539856,,96.54240848400161,
1557947316089,,19.929810868979917,0.0,,,,,,,
1557947316100,,,,2.3785233714102385,,,,,,
1557947316101,,,,,,,,,92.39620362004791,57.74238544017222
1557947316129,,17.532842176583348,,,,,,,,
1557947316145,,,,,5.83245325088501,-3.3615617752075195,-0.706311047077179,,92.65452820464691,
1557947316146,,,,,5.286558628082275,-3.5195839405059814,-1.252205729484558,,99.6922799933472,
1557947316165,,,,,,,,,114.57678532698992,57.8090245194776
1557947316166,0.0,,,2.6505656736247367,,,,,,
1557947316169,,18.321104674043497,0.0,,,,,,,
1557947316188,,,,,,,,1003.12939453125,,
1557947316209,,,,,6.253845691680908,-6.8619914054870605,,,,
1557947316210,,19.284359157609195,,,,,,,,
1557947316216,,,,1.2091212279924348,,,,,106.72535310246602,57.089894682185275
1557947316249,,19.249499524641138,,,,,,,,
1557947316266,,,,,7.046350955963135,-5.257827281951904,-1.3767080307006836,,99.78005475437106,
1557947316267,0.0,,,,,,,,,
1557947316287,,,,1.8839944002793143,,,,1003.133056640625,97.30691155780113,58.54576487810503
1557947316295,,17.501881748043708,0.0,,,,,,,
1557947316325,,,,,7.6712565422058105,-4.455745220184326,-2.387091875076294,,96.83674182590494,
1557947316329,,19.521914892971438,,,,,,,,
1557947316336,,,,2.873255324695087,,,,,86.56031240827059,58.95731927905879
1557947316368,0.0,,,,,,,,,
1557947316369,,18.680923894046213,0.0,,,,,,,
1557947316385,,,,,6.921848297119141,-2.3942747116088867,-1.7933118343353271,1003.131591796875,84.64439653475779,
1557947316386,,,,,7.352818012237549,-3.158048391342163,-1.8459858894348145,,89.25075807328443,
1557947316403,,,,2.088025366179628,,,,,97.84420838886018,58.231197453351406
1557947316409,,21.427064996897556,,,,,,,,
1557947316449,,18.99073823083076,0.0,,6.823683261871338,-3.718308687210083,-3.227482557296753,,104.16180552204182,
1557947316472,0.0,,,2.439131362011374,,,,,114.01680543769726,58.011683187542786
1557947316484,,,,,,,,1003.1328125,,
1557947316489,,21.632097327408076,,,,,,,,
1557947316517,,,,2.030095755475023,6.328068256378174,-5.593026161193848,-1.1899546384811401,,109.52484273757915,
1557947316518,,,,,,,,,,58.00442219874794
1557947316529,,22.151184828983283,,,,,,,,
1557947316566,,,,,7.039167881011963,-5.722316741943359,-3.0886144638061523,,116.61235245438297,
1557947316571,,20.163510226118436,0.0,,,,,,,
1557947316583,,,,3.133894507564972,,,,,111.22768402974418,57.720529772177144
1557947316584,,,,,,,,1003.13525390625,,
1557947316585,0.0,,,,,,,,,
1557947316612,,19.170444238032292,,,,,,,,
1557947316626,,,,,10.709590911865234,-8.904308319091797,-0.7254652380943298,,102.98801702260761,
1557947316636,,,,2.9749203454902315,,,,,86.95963258790619,57.840339553714884
1557947316649,,19.972734254420477,0.0,,,,,,,
1557947316685,0.0,,,,10.376787185668945,-2.4732859134674072,1.97048819065094,1003.1337890625,78.98977171336344,
1557947316693,,25.162287351888114,,,,,,,,
1557947316696,,,,5.96879985049536,,,,,80.51655804948223,58.79344734924546
1557947316728,,21.36824784751459,0.0,,,,,,,
1557947316750,,,,,12.387977600097656,-4.6999616622924805,0.9337671995162964,,,
1557947316751,,,,,,,,,86.6723684917938,
1557947316769,,21.208163319482438,,2.7906975748465026,,,,,100.77124497653415,57.60234109372775
1557947316784,,,,,,,,1003.141357421875,,
1557947316785,0.0,,,,,,,,,
1557947316806,,,,,10.101445198059082,-5.506832122802734,-0.026337023824453354,,94.37869334740077,
1557947316809,,23.77515221816578,,,,,,,,
1557947316816,,,,2.2865990412233375,,,,,83.59294355354768,58.70272459631255
1557947316848,,30.34064766547344,0.0,,,,,,,
1557947316864,,,,,9.692024230957031,,,,,
1557947316865,,,,,8.89233684539795,-2.885101079940796,-0.05746259540319443,,82.72184854756097,
1557947316880,,,,1.0987836268012967,,,,,92.70568632153032,58.19669180538586
1557947316884,,,,,,,,1003.143798828125,,
1557947316889,,32.12605035241839,,,,,,,,
1557947316900,0.0,,,,,,,,,
1557947316925,,,,,7.254652500152588,-3.6416919231414795,-0.282524436712265,,94.44750067309951,
1557947316929,,33.484558680942186,,,,,,,,
1557947316932,,,39.2822265625,,,,,,,
1557947316936,,,,,,,,,88.61102206505353,58.478640723419446
1557947316937,,,,2.904205916005867,,,,,,
1557947316969,,28.5734890936685,39.2822265625,,,,,,,
1557947316985,,,,,6.936213970184326,-2.628913640975952,-1.8675343990325928,1003.15869140625,90.59837488709547,
1557947316998,,,,1.7959544601953867,,,,,92.75140760783438,58.73414573338512
1557947317009,,25.968432245545007,39.2822265625,,,,,,,
1557947317017,0.0,,,,,,,,,
1557947317045,,,,,7.099024772644043,-3.155654191970825,-1.149251937866211,,93.37444380354464,
1557947317046,,,,,7.587456703186035,-2.8755240440368652,-1.2210801839828491,,92.25608911941424,
1557947317049,,26.5319993010465,,,,,,,,
1557947317056,,,,1.8812993724338751,,,,,,
1557947317057,,,,,,,,,88.91302570939484,57.869805703002605
1557947317084,,,,,,,,1003.15673828125,,
1557947317090,,25.648712931317053,0.0,,,,,,,
1557947317112,,,,,7.817307472229004,-2.667222023010254,-0.6249057054519653,,85.6073029435679,
1557947317116,,,,2.900147460608499,,,,,78.41927333274896,57.115744825754795
1557947317129,,24.61427400675207,,,,,,,,
1557947317133,0.0,,,,,,,,,
1557947317165,,,,,7.893924236297607,,,,,
1557947317166,,,,,,-1.5610672235488892,-0.5602602958679199,,78.04418666428853,
1557947317169,,25.565841701250104,,,,,,,,
1557947317183,,,,1.7759924813747203,,,,,82.42270675248193,57.08005625464732
1557947317184,,,,,,,,1003.157958984375,,
1557947317209,,24.112015394982155,0.0,,,,,,,
1557947317224,,,,,9.818921089172363,,,,,
1557947317225,,,,,11.368017196655273,-3.6656346321105957,-0.112530916929245,,87.46781232253352,
1557947317236,,,,5.575953640650678,,,,,95.98604176477988,55.96687870476374
1557947317249,,28.66758378172801,,,,,,,,
1557947317250,0.0,,,,,,,,,
1557947317284,,,,,12.775850296020508,,,,,
1557947317285,,,,,9.617801666259766,-8.262641906738281,-0.36392977833747864,1003.1591796875,100.00417375160669,
1557947317286,,,,,,,-1.7621862888336182,,115.33181492841061,
1557947317291,,28.06659027740291,,,,,,,,
1557947317292,,,0.0,,,,,,,
1557947317296,,,,4.6585032496345296,,,,,113.22031658801455,55.44314742116993
1557947317329,,29.837446406656,,,,,,,,
1557947317345,,,,,9.529213905334473,-9.047964096069336,-2.0925962924957275,,118.0796136918851,
1557947317346,,,,,,,,,112.0370204652557,
1557947317364,0.0,,,5.232058795493601,,,,,108.79388272279357,55.02556041047042
1557947317369,,25.92376944453224,0.0,,,,,,,
1557947317386,,,,,,,,1003.163818359375,,
1557947317409,,19.71148522207634,,,,,,,,
1557947317410,,,,,9.862017631530762,-6.419050693511963,-2.4996228218078613,,103.70604065910521,
1557947317415,,,,0.8634711009337992,,,,,,
1557947317416,,,,,,,,,99.22714411086935,54.35980060119774
1557947317448,,19.050367418197084,,,,,,,,
1557947317473,0.0,,,,7.3288750648498535,-4.130124092102051,-0.5818088054656982,,94.38307832884789,
1557947317475,,,,,,,,,93.34211651820294,53.933758266700416
1557947317476,,,,2.0214111314856007,,,,,,
1557947317483,,,,,,,,1003.16455078125,,
1557947317490,,18.036181214183735,0.0,,,,,,,
1557947317529,,17.380017289427784,,,,,,,,
1557947317534,,,,,7.216344356536865,-4.604190349578857,-1.92020845413208,,103.45934105647353,
1557947317536,,,,2.601511820164914,,,,,117.04575527797695,53.34637555110086
1557947317568,,16.745268481452143,,,,,,,,
1557947317569,,,0.0,,,,,,,
1557947317574,0.0,,,,,,,,,
1557947317585,,,,,6.5243988037109375,-5.166844844818115,-2.6815876960754395,1003.166259765625,113.86158255861955,
1557947317596,,,,1.5958744176584339,,,,,100.60824934218095,53.80581534540795
1557947317609,,15.743069227556362,,,,,,,,
1557947317645,,,,,7.81251859664917,-4.556304931640625,-2.7103190422058105,,99.08855274242063,
1557947317649,,17.216012725244802,0.0,,,,,,,
1557947317664,,,,1.6543459474025177,,,,,100.65500198704967,53.96311967684003
1557947317673,0.0,,,,,,,,,
1557947317684,,,,,,,,1003.1748046875,,
1557947317696,,19.480518351683692,,,,,,,,
1557947317711,,,,,7.008042335510254,-3.6345090866088867,-1.9992194175720215,,94.01133162289165,
1557947317716,,,,2.551500858606504,,,,,94.32267213582833,54.73904113679568
1557947317729,,14.92654296892917,,,,,,,,
1557947317765,,,,,5.655277252197266,-3.8643596172332764,-1.5610672235488892,,105.0676730210931,
1557947317769,,16.483046819092323,0.0,,,,,,,
1557947317781,,,,3.7991026320726053,,,,,144.6638574133553,54.46179230350985
1557947317782,0.0,,,,,,,,,
1557947317784,,,,,,,,1003.179443359375,,
1557947317811,,20.288035578502047,,,,,,,,
1557947317824,,,,,5.798933506011963,-6.225114345550537,,,,
1557947317825,,,,,,-6.459753513336182,-3.6800003051757812,,139.04261172643479,
1557947317835,,,,,,,,,121.38399091044556,54.04338199434863
1557947317836,,,,2.120603388803522,,,,,,
1557947317849,,16.241510820009996,0.0,,,,,,,
1557947317885,,,,,7.755055904388428,-6.25145149230957,-2.355966329574585,1003.179931640625,111.31387418688058,
1557947317889,,17.242433515758474,,,,,,,,
1557947317895,0.0,,,,,,,,,
1557947317896,,,,2.6136228055941575,,,,,103.69138307314637,55.443571608544424
1557947317929,,19.30772355615776,0.0,,,,,,,
1557947317944,,,,,10.398335456848145,-7.472531795501709,0.38547825813293457,,,
1557947317945,,,,,,,,,97.07404991842787,
1557947317965,,,,4.194592746249005,,,,,84.89154692987472,55.4841702776085
1557947317968,,18.652577795968867,,,,,,,,
1557947317983,,,,,,,,1003.185546875,,
1557947317995,0.0,,,,,,,,,
1557947318004,,,,,11.432662010192871,-2.9018609523773193,,,,
1557947318005,,,,,11.916305541992188,-2.296109437942505,1.951333999633789,,78.06317459018118,
1557947318011,,18.21427368885721,,,,,,,,
1557947318015,,,,5.696722246006429,,,,,79.61664647538726,56.98439791352021
1557947318049,,18.368786058492105,0.0,,,,,,,
1557947318064,,,,,12.653742790222168,-5.458946704864502,-1.5227587223052979,,93.19562262088454,
1557947318078,,,,3.0296881673260287,,,,,103.61140155796551,56.30011092548731
1557947318083,,,,,,,,1003.18701171875,,
1557947318089,,18.718554426702063,,,,,,,,
1557947318095,0.0,,,,,,,,,
1557947318128,,17.6816473925067,0.0,,,,,,,
1557947318132,,,,,9.747093200683594,-5.973715782165527,-0.05267404764890671,,99.79129724574489,
1557947318136,,,,1.675758770700773,,,,,95.91714564662198,56.13447935123029
1557947318168,,19.62230239330594,,,,,,,,
1557947318184,,,,,5.949772834777832,-3.778165578842163,-1.5586729049682617,1003.18896484375,,
1557947318185,,,,,,,,,108.56344580057566,
1557947318195,,,,1.5732048309645785,,,,,91.73980195024217,57.08371633189824
1557947318208,,14.297193302294772,0.0,,,,,,,
1557947318212,0.0,,,,,,,,,
1557947318244,,,,,7.704776287078857,-3.347196102142334,-0.05027977004647255,,89.85988117365537,
1557947318245,,,,,7.187613010406494,-3.0814316272735596,-1.240234375,,93.15718914642486,
1557947318248,,15.519310636997702,,,,,,,,
1557947318261,,,,2.2599261992566095,,,,,95.39918508110321,56.709711452470515
1557947318285,,,,,,,,1003.1943359375,,
1557947318288,,14.626101863012654,,,,,,,,
1557947318305,,,,,7.158881664276123,-3.4333901405334473,-0.797293484210968,,95.95175421514642,
1557947318315,,,,1.7471560120819776,,,,,,
1557947318316,,,,,,,,,98.11609089896172,57.26530745755243
1557947318327,0.0,,,,,,,,,
1557947318329,,18.082752937895503,0.0,,,,,,,
1557947318364,,,,,7.1756415367126465,-3.596200704574585,,,,
1557947318365,,,,,,,-0.9505270719528198,,96.93823843697135,
1557947318369,,18.363262690426893,,,,,,,,
1557947318384,,,,2.067914963654337,,,,1003.197509765625,88.75335637716745,56.430181599983435
1557947318408,,18.717496067273707,0.0,,,,,,,
1557947318424,,,,,8.533195495605469,-2.7749645709991455,-0.8739103078842163,,85.29529307209253,
1557947318435,,,,1.9927859136857686,,,,,83.43479052331605,57.3141015893228
1557947318446,0.0,,,,,,,,,
1557947318448,,18.715974223592497,,,,,,,,
1557947318484,,,,,8.808537483215332,,,,,
1557947318485,,,,,,-2.9665064811706543,-0.7829278707504272,1003.203125,85.88206096330998,
1557947318489,,19.525788536544134,0.0,,,,,,,
1557947318503,,,,1.8715403746505561,,,,,93.66075850336239,56.63840953969993
1557947318528,,19.40906500790871,,,,,,,,
1557947318545,,,,,7.376760482788086,-3.696760416030884,-0.7948992252349854,,95.31788533941256,
1557947318560,,,,2.0869154334342714,,,,,,
1557947318561,0.0,,,,,,,,99.25546890535736,55.57817088425196
1557947318568,,17.735600821564816,,,,,,,,
1557947318583,,,,,,,,1003.2001953125,,
1557947318604,,,,,11.1836576461792,,,,,
1557947318605,,,,,,-7.247469902038574,-0.6129343509674072,,100.0335025839027,
1557947318611,,20.81460797509411,0.0,,,,,,,
1557947318615,,,,3.9341290288728854,,,,,103.45951181120279,56.66357472374142
1557947318648,,22.596369412075706,,,,,,,,
1557947318664,,,,,9.392740249633789,-7.604216575622559,-2.4397659301757812,,116.88121602087134,
1557947318665,,,,,,,-4.053507328033447,,123.52194940368628,
1557947318682,0.0,,,2.7048928538200867,,,,,110.88565547686665,55.95526778389445
1557947318683,,,,,,,,1003.196533203125,,
1557947318694,,24.50205453876134,0.0,,,,,,,
1557947318725,,,,,10.963384628295898,-6.754249095916748,-2.1883671283721924,,103.63644103146277,
1557947318728,,26.03078673737369,,,,,,,,
1557947318735,,,,5.744167853131659,,,,,101.21690115949912,56.239270376733415
1557947318769,,25.791559845869322,0.0,,,,,,,
1557947318788,0.0,,,,10.35284423828125,-6.423839092254639,-2.353572130203247,1003.20166015625,105.95876682096963,
1557947318795,,,,2.756354965321908,,,,,115.4459337290632,55.803416732368234
1557947318808,,19.191818986920076,,,,,,,,
1557947318849,,17.048680843027284,,,,,,,,
1557947318851,,,,,4.300117492675781,-4.39109992980957,-0.9337671995162964,,119.43166329846747,
1557947318872,,,,3.687859210605928,,,,,126.58421007654812,55.948059929068705
1557947318883,,,,,,,,1003.203369140625,,
1557947318889,,19.72469952659065,0.0,,,,,,,
1557947318894,0.0,,,,,,,,,
1557947318904,,,,,5.389512538909912,-4.735875606536865,-2.5858168601989746,,125.26013692480615,
1557947318915,,,,2.4593941829568244,,,,,,
1557947318916,,,,,,,,,102.86803108945799,56.404116507598
1557947318929,,19.240828688906884,,,,,,,,
1557947318964,,,,,6.079063892364502,-2.454131603240967,-2.0351336002349854,,90.52733408953816,
1557947318969,,18.234653570549618,0.0,,,,,,,
1557947318976,,,,3.2366730270820874,,,,,96.88804337676095,56.51002853924778
1557947318983,,,,,,,,1003.201904296875,,
1557947318995,0.0,,,,,,,,,
1557947319008,,18.645184804094143,,,,,,,,
1557947319031,,,,,5.4373979568481445,-3.3543789386749268,-1.8196488618850708,,108.50346990947378,
1557947319035,,,,3.421269193350851,,,,,138.045568032153,
1557947319036,,,,,,,,,,56.961998583175806
1557947319049,,19.430675242924316,0.0,,,,,,,
1557947319084,,,,,6.557918548583984,-6.0886406898498535,-3.287339210510254,1003.207763671875,133.9099294708453,
1557947319093,,18.348847366664845,,,,,,,,
1557947319095,,,,2.0759989252841056,,,,,111.40415562732983,57.7521736674458
1557947319113,0.0,,,,,,,,,
1557947319129,,17.6471226868443,,,,,,,,
1557947319148,,,,,10.247496604919434,-5.226701736450195,-1.051086664199829,,97.86840091890036,
1557947319168,,18.029210318040796,0.0,,,,,,,
1557947319171,,,,2.7051148780501886,,,,,96.55418373013072,57.70533914171384
1557947319183,,,,,,,,1003.210205078125,,
1557947319204,,,,,10.364815711975098,-6.160469055175781,-0.39505535364151,,101.46275381867372,
1557947319208,,18.949229703856158,,,,,,,,
1557947319216,,,,3.8633402481434125,,,,,,
1557947319217,,,,,,,,,88.82098891032888,58.02328513797043
1557947319232,0.0,,,,,,,,,
1557947319249,,21.944057806515666,0.0,,,,,,,
1557947319264,,,,,12.469383239746094,-2.5953938961029053,1.3431881666183472,,79.1516813476386,
1557947319265,,,,,12.507691383361816,-1.2929084300994873,1.6951465606689453,,74.52025984504718,
1557947319277,,,,4.9043466557111115,,,,,74.06313577446576,57.792489976353615
1557947319283,,,,,,,,1003.220947265625,,
1557947319289,,18.907067307378668,,,,,,,,
1557947319324,,,,,11.394353866577148,,,,,
1557947319325,,,,,10.630579948425293,-4.297723293304443,0.1771763414144516,,90.9768561595734,
1557947319329,,18.968316713595872,0.0,,,,,,,
1557947319335,,,,3.9832984816384576,,,,,109.86817585658818,57.52135187510208
1557947319341,0.0,,,,,,,,,
1557947319369,,21.672938866212963,,,,,,,,
1557947319384,,,,,9.68484115600586,-5.808510780334473,-0.6799740195274353,1003.229248046875,105.21980865466594,
1557947319395,,,,2.4892372199337034,,,,,,
1557947319396,,,,,,,,,80.4657960835707,58.79381621849409
1557947319409,,15.59742461555835,,,,,,,,
1557947319441,0.0,,,,,,,,,
1557947319444,,,,,8.224333763122559,-0.706311047077179,-0.9289786219596863,,72.67419631617616,
1557947319449,,15.745627315695721,0.0,,,,,,,
1557947319461,,,,2.079764271729937,,,,,88.84379491196756,58.97264253907906
1557947319483,,,,,,,,1003.23291015625,,
1557947319489,,16.450333018155384,,,,,,,,
1557947319504,,,,,6.445387840270996,-2.5211713314056396,-0.5818088054656982,,95.49685678623439,
1557947319505,,,,,,,,,91.64775149079787,
1557947319515,,,,2.334657452307875,,,,,90.6652902503941,58.487105165502676
1557947319530,,14.6035569701844,0.0,,,,,,,
1557947319547,0.0,,,,,,,,,
1557947319569,,16.29517081002357,,,,,,,,
1557947319570,,,,,7.874769687652588,,,,,
1557947319571,,,,,,-1.9273911714553833,-1.319245457649231,,84.57560969962663,
1557947319594,,,,2.499767197259942,,,,,88.26607019121121,
1557947319595,,,,,,,,1003.2353515625,,58.7484543424866
1557947319609,,17.635977525776866,0.0,,,,,,,
1557947319640,,,,,7.714353561401367,-2.604970932006836,-1.1779831647872925,,91.74258866742355,
1557947319641,,,,1.7442255116958456,,,,,90.64845383408999,57.59534137356093
1557947319649,,17.89267255289105,,,,,,,,
1557947319663,0.0,,,,,,,,,
1557947319687,,,,,9.06472396850586,-1.6448668241500854,-0.1005595400929451,,,
1557947319688,,,,,,,,1003.2353515625,77.79968638256963,
1557947319695,,17.14129142285675,,,,,,,,
1557947319696,,,,2.656482731216452,,,,,80.42762215629955,57.42959059053732
1557947319730,,18.08956204145439,0.0,,,,,,,
1557947319757,,,,,8.221940040588379,-3.6033835411071777,,,,
1557947319758,,,,5.566303795657999,,-5.77259635925293,0.39984390139579773,,90.25884618345412,57.65291120255249
1557947319769,,24.315980456307827,,,,,,,,
1557947319781,0.0,,,,,,,,,
1557947319783,,,,,,,,1003.23193359375,,
1557947319804,,,,,13.577932357788086,-9.04317569732666,0.26815879344940186,,101.21698995195834,
1557947319805,,,,,11.621809959411621,-7.644919395446777,-0.9505270719528198,,105.22677544761939,
1557947319808,,29.169332491650643,0.0,,,,,,,
1557947319824,,,,4.316417518014139,,,,,113.04777917939086,56.4537164474796
1557947319849,,22.15764615138419,,,,,,,,
1557947319864,,,,,11.765466690063477,-8.116591453552246,-3.2155110836029053,,112.6966391541605,
1557947319865,,,,,12.019259452819824,-7.44140625,-1.9417568445205688,,103.65454103276329,
1557947319886,,,,2.4827395640295924,,,,1003.227783203125,101.57697507216386,56.753974638289904
1557947319887,0.0,,,,,,,,,
1557947319890,,20.471688675711253,0.0,,,,,,,
1557947319925,,,,,9.273026466369629,-5.4685235023498535,-2.5929996967315674,,106.69016396786213,
1557947319930,,16.62082937245984,,,,,,,,
1557947319935,,,,1.6458834708902559,,,,,104.03136939946208,56.54489913430858
1557947319968,,16.858128004500706,,,,,,,,
1557947319969,,,0.0,,,,,,,
1557947319984,,,,,7.82209587097168,-5.267404556274414,-0.8044763207435608,1003.227783203125,101.89836279336964,
1557947320002,0.0,,,2.045723044950573,,,,,102.64607726218924,55.92208962854356
1557947320009,,17.146281374831243,,,,,,,,
1557947320044,,,,,5.4062724113464355,-4.300117492675781,,,,
1557947320045,,,,,,,-2.9832663536071777,,125.45896373154523,
1557947320049,,18.652342758152972,,,,,,,,
1557947320055,,,,,,,,,130.56774032503967,55.68122736975712
1557947320064,,,,3.0679479914488224,,,,,,
1557947320088,,,,,,,,1003.248779296875,,
1557947320090,,17.32015178364466,0.0,,,,,,,
1557947320112,,,,,5.427821159362793,-5.095016956329346,-2.6815876960754395,,125.74661031825113,
1557947320113,0.0,,,,,,,,108.9471111866336,
1557947320115,,,,,,,,,112.9213523778539,56.96578799056063
1557947320116,,,,3.011346341274842,,,,,,
1557947320129,,18.005386254877436,,,,,,,,
1557947320165,,,,,5.770202159881592,-2.6456737518310547,-2.0662591457366943,,93.04951804434882,
1557947320169,,19.351278056031074,0.0,,,,,,,
1557947320189,,,,3.1354570523488317,,,,1003.252197265625,96.11068588694343,56.733513764366066
1557947320209,,18.95493330223597,,,,,,,,
1557947320218,0.0,,,,,,,,,
1557947320244,,,,,7.407886028289795,,,,,
1557947320245,,,,1.1739805506601235,,-3.6153550148010254,-2.9042553901672363,,100.20047338835286,57.778751291664165
1557947320249,,15.624479756516292,0.0,,,,,,,
1557947320283,,,,,8.286584854125977,-4.312088966369629,-1.4509304761886597,,,
1557947320284,,,,,8.396721839904785,-4.819674968719482,-1.1731946468353271,1003.252197265625,99.94255178491483,
1557947320288,,17.621526814293134,,,,,,,,
1557947320297,,,,,,,,,113.44010524531637,
1557947320298,,,,1.1203691752847464,,,,,,57.69676209091332
1557947320321,0.0,,,,,,,,,
1557947320328,,18.69929830284615,,,,,,,,
1557947320343,,,,,7.776604652404785,,,,,
1557947320344,,,,,8.509252548217773,-4.257020473480225,-2.6241252422332764,,110.49521454315203,
1557947320355,,,,3.316184819426052,,,,,97.86635869233851,58.09744363433817
1557947320371,,19.723230338963806,0.0,,,,,,,
1557947320387,,,,,,,,1003.259033203125,,
1557947320409,,18.045535597711876,,,12.323332786560059,-6.0311784744262695,0.6177229285240173,,94.21076631646685,
1557947320415,,,,4.907781471268517,,,,,86.72905906190488,57.70449765178356
1557947320428,0.0,,,,,,,,,
1557947320449,,21.233052175679674,0.0,,,,,,,
1557947320470,,,,,14.497333526611328,-3.2945220470428467,1.6807808876037598,,80.90790056816729,
1557947320488,,19.003857092918896,,,,,,,,
1557947320490,,,,5.3956722790261615,,,,1003.265625,72.84430217745535,57.72904106637526
1557947320525,,,,,11.64335823059082,-3.1077687740325928,0.6656084060668945,,84.69131993435582,
1557947320528,,17.669074921247564,0.0,,,,,,,
1557947320534,,,,1.364398705996926,,,,,,
1557947320535,,,,,,,,,97.37199643040219,57.790059938599406
1557947320545,0.0,,,,,,,,,
1557947320569,,19.658941326819534,,,,,,,,
1557947320583,,,,,7.927443981170654,-3.557892322540283,,,,
1557947320584,,,,,6.972128391265869,-2.451737403869629,0.4908263385295868,1003.265625,92.87124327682227,
1557947320597,,,,3.795772062631348,,,,,80.98713076253944,58.27939964749727
1557947320609,,20.641926078529693,,,,,,,,
1557947320644,,,,,6.416656494140625,-0.6392713785171509,0.22506183385849,,73.09160966692315,
1557947320649,,13.061818002575535,0.0,,,,,,,
1557947320655,,,,2.5567237135264245,,,,,82.89464550337311,57.880254536908055
1557947320658,0.0,,,,,,,,,
1557947320683,,,,,,,,1003.28076171875,,
1557947320689,,16.24367467510966,,,,,,,,
1557947320703,,,,,7.218738555908203,,,,,
1557947320704,,,,,6.711152076721191,-2.111750364303589,-0.9337671995162964,,86.67518252973184,
1557947320715,,,,4.8898453258555135,,,,,47.49728233733583,57.998059599783986
1557947320729,,16.098133317388324,0.0,,,,,,,
1557947320765,0.0,,,,7.55154275894165,-1.872322916984558,-1.1875603199005127,,83.06593981756788,
1557947320768,,22.265809102345987,,,,,,,,
1557947320785,,,,1.6469854676115638,,,,1003.283935546875,88.49223141500869,57.0726158663933
1557947320809,,21.291394318936852,0.0,,,,,,,
1557947320824,,,,,7.510839939117432,-2.7486274242401123,-1.6328954696655273,,90.74036085956169,
1557947320835,,,,1.0490245670645624,,,,,91.60101933649668,56.815182267668604
1557947320848,,19.527545646713932,,,,,,,,
1557947320864,0.0,,,,,,,,,
1557947320884,,,,,8.42066478729248,-2.8755240440368652,-0.4908263385295868,1003.283935546875,85.91494149397442,
1557947320888,,19.396154575405657,,,,,,,,
1557947320901,,,,4.530706123070973,,,,,86.78978627381548,55.67682908483696
1557947320928,,21.989203462481694,0.0,,,,,,,
1557947320944,,,,,14.923515319824219,-5.695979595184326,0.25858166813850403,,85.211268084923,
1557947320954,,,,4.67045791210719,,,,,100.02002662067025,56.40271104749385
1557947320964,0.0,,,,,,,,,
1557947320968,,21.833021308348457,,,,,,,,
1557947320983,,,,,,,,1003.285400390625,,
1557947321004,,,,,12.97457504272461,-8.779806137084961,-2.047105073928833,,105.78190590260132,
1557947321008,,23.180479472722926,0.0,,,,,,,
1557947321015,,,,4.300640661729175,,,,,94.90869553642625,55.33577836649212
1557947321048,,20.941596538731982,,,,,,,,
1557947321063,,,,,11.964191436767578,-4.709538459777832,-2.858764171600342,,84.49412554282833,
1557947321079,,,,1.4303372266922816,,,,,70.71214934500915,54.85778502072769
1557947321080,0.0,,,,,,,,,
1557947321083,,,,,,,,1003.275390625,,
1557947321090,,24.30172170623218,0.0,,,,,,,
1557947321128,,24.921583288122054,,,,,,,,
1557947321131,,,,,6.8212890625,-2.0327394008636475,-0.7039167881011963,,75.01758640908332,
1557947321134,,,,,,,,,94.96520852161893,
1557947321135,,,,5.371026988221445,,,,,,53.82136942963731
1557947321168,,20.77254577296415,,,,,,,,
1557947321181,0.0,,,,,,,,,
1557947321183,,,,,4.23068380355835,-4.053507328033447,-0.8978530764579773,1003.275390625,115.13734578236202,
1557947321184,,,,,4.582642078399658,-5.133325099945068,-1.501210331916809,,127.82173107112772,
1557947321196,,,,3.9284498567472563,,,,,128.39735209361973,
1557947321197,,,,,,,,,,52.23474446579351
1557947321213,,16.530811879558055,0.0,,,,,,,
1557947321246,,,,,4.896292209625244,-5.049525737762451,,,,
1557947321247,,,,,,,-2.3344178199768066,,129.17472324381555,
1557947321249,,13.908109892185106,,,,,,,,
1557947321255,,,,3.3520214415708884,,,,,97.98984851253238,52.52567193432281
1557947321281,0.0,,,,,,,,,
1557947321284,,,,,,,,1003.27490234375,,
1557947321289,,17.726384887944498,0.0,,,,,,,
1557947321303,,,,,5.947378635406494,-3.1364998817443848,-2.4014575481414795,,83.82970523093701,
1557947321304,,,,,7.831672668457031,-3.998438835144043,-4.163643836975098,,78.72997863809286,
1557947321315,,,,2.45097762474203,,,,,75.68358449467291,52.169956351597065
1557947321329,,20.0990162458454,,,,,,,,
1557947321363,,,,,8.947404861450195,,,,,
1557947321364,,,,,,-5.63133430480957,-3.8930907249450684,,93.15597337275261,
1557947321368,,18.57865599587273,0.0,,,,,,,
1557947321384,,,,3.0592444106569423,,,,1003.290771484375,59.211401688460796,52.00463289574165
1557947321385,0.0,,,,,,,,,
1557947321408,,22.514643983598788,,,,,,,,
1557947321424,,,,,9.505270957946777,-2.1285102367401123,-2.0902018547058105,,59.47912461335778,
1557947321434,,,,7.338111823339567,,,,,82.00892706237335,50.669457628092644
1557947321448,,21.964747804554925,,,,,,,,
1557947321483,,,,,15.670528411865234,-10.130176544189453,1.4796618223190308,1003.290771484375,83.96712180684852,
1557947321484,,,,,,,,,76.32936522031929,
1557947321488,,21.979958988183572,,,,,,,,
1557947321489,,,0.0,,,,,,,
1557947321495,0.0,,,4.406170999887434,,,,,63.69271612366282,50.76063709779075
1557947321529,,18.909947863602103,,,,,,,,
1557947321551,,,,,11.33210277557373,0.016759924590587616,3.5459210872650146,,56.553833139016774,
1557947321555,,,,7.008294232501687,,,,,59.64484549318979,49.99483411430083
1557947321569,,21.636440348634153,0.0,,,,,,,
1557947321583,,,,,,,,1003.295654296875,,
1557947321603,,,,,12.519662857055664,-5.894704341888428,3.0287575721740723,,73.74200077025927,
1557947321604,,,,,10.913105010986328,-7.216344356536865,1.8938714265823364,,84.3246822098987,
1557947321609,,19.186982464114735,,,,,,,,
1557947321615,0.0,,,2.387200589404404,,,,,84.50988961943273,49.25703868686156
1557947321649,,19.205320840900452,0.0,,,,,,,
1557947321663,,,,,7.987300872802734,,,,,
1557947321664,,,,,,-3.2945220470428467,1.1277034282684326,,71.61414412680102,
1557947321682,,,,4.371931689469506,,,,,54.07588148927118,48.479814142399704
1557947321683,,,,,,,,1003.302978515625,,
1557947321689,,15.71879091355119,,,,,,,,
1557947321723,0.0,,,,,,,,,
1557947321724,,,,,7.553936958312988,-0.22506183385849,-0.09098244458436966,,49.327735468858805,
1557947321727,,,,,7.403097629547119,-1.2569942474365234,-0.5171633362770081,,54.26979397490243,
1557947321731,,13.952134341140852,,,,,,,,
1557947321735,,,,2.4977475509685,,,,,64.27388325976085,48.13144304285102
1557947321769,,13.72709572133973,0.0,,,,,,,
1557947321788,,,,,6.850020408630371,-3.538738250732422,-0.7877163887023926,1003.302978515625,76.40599994280683,
1557947321795,,,,2.162500141121744,,,,,52.31085473980772,46.43511501425759
1557947321809,,14.804078497561123,,,,,,,,
1557947321830,0.0,,,,,,,,,
1557947321848,,16.765951189833505,,,,,,,,
1557947321849,,,0.0,,,,,,,
1557947321850,,,,,8.628966331481934,-1.9489396810531616,-0.38547825813293457,,51.77934307897567,
1557947321854,,,,0.6892167677728673,,,,,60.40728584985999,47.0900614522135
1557947321888,,18.05849018428863,,,,,,,,
1557947321890,,,,,,,,1003.301025390625,,
1557947321903,,,,,10.058348655700684,-4.678412914276123,-1.2186858654022217,,64.28942194012268,
1557947321914,,,,2.343683674191731,,,,,53.04921184946443,45.75750320922263
1557947321929,,18.46695390312586,0.0,,,,,,,
1557947321945,0.0,,,,,,,,,
1557947321966,,,,,11.660118103027344,,,,,
1557947321967,,,,,11.624204635620117,-1.8699285984039307,-1.2546000480651855,,43.208770482024875,
1557947321969,,14.957000519274558,,,,,,,,
1557947321988,,,,4.300977711083869,,,,1003.302490234375,40.37781416540554,46.672980801844254
1557947322008,,17.677614711751243,,,,,,,,
1557947322029,,,,,12.294601440429688,-2.1165390014648438,-0.6201171875,,48.009153789209506,
1557947322034,,,,4.372677649874492,,,,,57.77116067931519,46.396102499480875
1557947322048,,15.761728314116048,,,,,,,,
1557947322049,,,0.0,,,,,,,
1557947322050,0.0,,,,,,,,,
1557947322088,,18.305493914909686,,,,,,,,
1557947322091,,,,,10.027222633361816,-4.719115734100342,1.9010541439056396,1003.308349609375,66.55321300844253,
1557947322094,,,,3.5871775359264517,,,,,81.93951184983854,45.177447774972116
1557947322129,,17.753850341404917,0.0,,,,,,,
1557947322143,,,,,6.110189437866211,-4.419831275939941,0.1412622183561325,,82.40901222319604,
1557947322154,,,,1.5610383635993013,,,,,59.09698918967388,44.45793360861809
1557947322161,0.0,,,,,,,,,
1557947322168,,18.64609280360275,,,,,,,,
1557947322182,,,,,,,,1003.32177734375,,
1557947322203,,,,,10.070320129394531,-3.502824068069458,3.383110284805298,,57.52110062361186,
1557947322204,,,,,11.202812194824219,-4.525179386138916,2.425400495529175,,59.31724913002847,
1557947322209,,17.373621530368645,0.0,,,,,,,
1557947322214,,,,3.0688232226677483,,,,,51.49873500220946,42.45367855937046
1557947322249,,22.705243569512113,,,,,,,,
1557947322265,,,,,10.249890327453613,-4.29054069519043,0.96010422706604,,48.327990434760295,
1557947322266,0.0,,,,,,,,,
1557947322284,,,,1.7030827228303453,,,,1003.317626953125,47.981272957017495,42.07095274071068
1557947322288,,19.36748479628059,,,,,,,,
1557947322324,,,,,7.245075702667236,-3.5794408321380615,0.45251792669296265,,47.94188667116862,
1557947322328,,14.454135560001657,0.0,,,,,,,
1557947322334,,,,0.7987333208829098,,,,,44.22953883838875,40.51417447980285
1557947322369,,15.466209923595596,,,,,,,,
1557947322379,0.0,,,,,,,,,
1557947322383,,,,,8.952193260192871,-4.5706706047058105,0.967287003993988,1003.314453125,48.16172655488924,
1557947322398,,,,1.7330399607317668,,,,,38.81785018539341,40.15887458126512
1557947322408,,15.303478278994984,0.0,,,,,,,
1557947322445,,,,,7.685622215270996,-4.563488006591797,0.9409499764442444,,45.1773436989439,
1557947322448,,15.88131907025456,,,,,,,,
1557947322454,,,,2.5348740995243637,,,,,121.54951371479166,38.3915129313534
1557947322478,0.0,,,,,,,,,
1557947322482,,,,,,,,1003.3173828125,,
1557947322488,,14.951099297045502,0.0,,,,,,,
1557947322503,,,,,6.768614768981934,-6.732700824737549,1.6400781869888306,,131.3170667185034,
1557947322516,,,,2.2474888457805435,,,,,200.33128248963726,37.81056815089044
1557947322528,,15.771321226986224,,,,,,,,
1557947322563,,,,,7.374366283416748,-5.885127544403076,0.09337671846151352,,235.77689069687688,
1557947322569,,15.545962792747437,0.0,,,,,,,
1557947322578,,,,0.18775041071190338,,,,,273.07010605574004,38.426755358180905
1557947322579,0.0,,,,,,,,,
1557947322582,,,,,,,,1003.3115234375,,
1557947322609,,19.13798840009258,,,,,,,,
1557947322628,,,,,9.088666915893555,,,,,
1557947322629,,,,,9.13415813446045,-4.237866401672363,-1.1971373558044434,,291.66834233546956,
1557947322634,,,,8.587057941280824,,,,,290.61822124114764,40.933941899508945
1557947322649,,21.795456035879987,,,,,,,,
1557947322679,0.0,,,,,,,,,
1557947322683,,,,,8.497281074523926,-4.563488006591797,-3.435784339904785,1003.3046875,271.96619722170425,
1557947322689,,17.03505834906146,0.0,,,,,,,
1557947322697,,,,1.0363069292727085,,,,,252.2755131653662,42.04548736989322
1557947322729,,18.717066035072154,,,,,,,,
1557947322748,,,,,8.367990493774414,-4.52039098739624,-3.5435266494750977,,264.39110762080986,
1557947322754,,,,2.083472463412545,,,,,237.4074071159207,43.606130541858356
1557947322769,,13.693778553876035,0.0,,,,,,,
1557947322779,0.0,,,,,,,,,
1557947322782,,,,,,,,1003.311279296875,,
1557947322802,,,,,11.588290214538574,,,,,
1557947322803,,,,,12.490931510925293,-8.030397415161133,-1.8818999528884888,,219.73640999715542,
1557947322813,,17.176808790681363,,,,,,,,
1557947322814,,,,3.403201917999832,,,,,189.51935258069557,43.49209540070886
1557947322848,,14.524627375637198,0.0,,,,,,,
1557947322862,,,,,7.699987888336182,,,,,
1557947322863,,,,,6.560312747955322,-3.4238128662109375,1.2953026294708252,,168.82324737568754,
1557947322881,0.0,,,5.550305318596327,,,,,22.7954063077226,44.360456001356155
1557947322883,,,,,,,,1003.30908203125,,
1557947322888,,16.371004022951304,,,,,,,,
1557947322923,,,,,6.045543670654297,-0.4070267081260681,2.906649589538574,,67.29549064668282,
1557947322929,,18.011072369682623,,,,,,,,
1557947322934,,,,4.152011631973231,,,,,166.79219500333588,44.25421922411521
1557947322969,,22.11531586301927,0.0,,,,,,,
1557947322981,0.0,,,,,,,,,
1557947322983,,,,,11.672089576721191,-7.707170486450195,2.815667152404785,1003.3037109375,,
1557947322984,,,,,9.75188159942627,-6.8021345138549805,1.1684061288833618,,,
1557947322985,,,,,,,1.934574007987976,,185.5083922924972,
1557947322996,,,,1.4804210806144764,,,,,189.29894237617918,44.342476717763276
1557947323009,,16.28522146552543,,,,,,,,
1557947323049,,17.636910917592136,0.0,,8.066311836242676,-3.6392977237701416,2.4948344230651855,,179.28264390080824,
1557947323054,,,,2.8430862490532474,,,,,230.33338019253847,46.17182180094023
1557947323088,,12.753975481803039,,,,,,,,
1557947323093,0.0,,,,,,,1003.296142578125,,
1557947323103,,,,,8.169265747070312,-1.41022789478302,-0.04309694468975067,,240.82874449382842,
1557947323121,,,,0.7563852063210511,,,,,203.40163010647643,46.40312274410327
1557947323130,,16.2278008715228,0.0,,,,,,,
1557947323169,,14.263009733813597,,,8.427846908569336,-5.300924301147461,-0.5985686779022217,,209.51152118699792,
1557947323195,0.0,,,1.2061771963809957,,,,1003.304931640625,212.00212234708636,47.011444815765266
1557947323208,,14.392162933993962,,,,,,,,
1557947323244,,,,0.922278493737318,8.643332481384277,-3.9505534172058105,-0.13168510794639587,,206.4501484387282,47.15056964558074
1557947323249,,18.356654117738596,0.0,,,,,,,
1557947323287,,,,,9.292180061340332,-3.6392977237701416,-0.282524436712265,1003.306884765625,213.12079805010774,
1557947323289,,18.821591196356135,,,,,,,,
1557947323310,0.0,,,1.3244423466508652,,,,,216.97268323253644,47.17182880449542
1557947323329,,17.73643012636297,,,,,,,,
1557947323330,,,0.0,,,,,,,
1557947323350,,,,,9.703995704650879,-4.972908973693848,-1.951333999633789,,221.6043847728838,
1557947323351,,,,,,,,,227.20340502424511,
1557947323356,,,,2.366367915823131,,,,,232.10103314973776,47.440311181543876
1557947323368,,15.655720956818445,,,,,,,,
1557947323388,,,,,,,,1003.305908203125,,
1557947323403,,,,,10.379180908203125,-2.2817440032958984,-1.3862850666046143,,233.38922048758053,
1557947323409,,18.570896492870553,0.0,,,,,,,
1557947323414,,,,3.252695579659361,,,,,215.5253388266541,46.674601971437575
1557947323431,0.0,,,,,,,,,
1557947323449,,16.288579024802047,,,,,,,,
1557947323463,,,,,12.21319580078125,-3.1795969009399414,0.004788549616932869,,208.07989987658493,
1557947323480,,,,1.6709386752716435,,,,,187.6762943350593,47.88639069039907
1557947323482,,,,,,,,1003.2998046875,,
1557947323488,,16.848270489593766,,,,,,,,
1557947323523,,,,,7.745479106903076,,,,,
1557947323528,,18.195812367711305,0.0,,,,,,,
1557947323529,,,,,6.498061656951904,-6.103006362915039,1.1755889654159546,,179.80475722134236,
1557947323530,0.0,,,,,,,,,
1557947323535,,,,3.9571631994211494,,,,,172.23883373431417,46.635287820437675
1557947323568,,17.767415290562,,,,,,,,
1557947323583,,,,,5.233884811401367,,,,,
1557947323584,,,,,5.83245325088501,-6.263422966003418,0.9888355135917664,1003.302978515625,175.83205965287448,
1557947323596,,,,2.7278407032846212,,,,,180.98794087335102,45.094059692007804
1557947323609,,20.431795401039313,0.0,,,,,,,
1557947323630,0.0,,,,,,,,,
1557947323648,,,,,8.298556327819824,-8.4613676071167,1.9369683265686035,,173.6903582159686,
1557947323649,,18.53799575875573,,,,,,,,
1557947323655,,,,2.624988374230208,,,,,172.79102720795302,44.09167094050943
1557947323683,,,,,,,,1003.30126953125,,
1557947323688,,14.990758306077128,,,,,,,,
1557947323689,,,0.0,,,,,,,
1557947323704,,,,,7.652102470397949,-6.325674057006836,1.5059988498687744,,180.0123576334414,
1557947323705,,,,,,-5.755836486816406,0.7925049662590027,,187.61967206683983,
1557947323715,,,,1.4052521450187194,,,,,188.69239425712544,44.80124015681555
1557947323729,,13.687674181033486,,,,,,,,
1557947323742,0.0,,,,,,,,,
1557947323769,,18.58445801183392,,,,,,,,
1557947323770,,,,,6.658478260040283,-5.0686798095703125,-0.6320885419845581,,199.310278491747,
1557947323797,,,,2.7287713752220433,,,,,219.1565815781347,
1557947323798,,,,,,,,1003.3115234375,,46.515208710362494
1557947323812,,14.046436949665441,0.0,,,,,,,
1557947323825,,,,,7.218738555908203,-6.900300025939941,-2.3416006565093994,,213.29633391177708,
1557947323835,,,,1.1701043548669865,,,,,198.42397948466783,46.18008706653491
1557947323849,,21.27923463685816,,,,,,,,
1557947323850,0.0,,,,,,,,,
1557947323884,,,,,6.718335151672363,-4.992063045501709,-1.1540404558181763,1003.321533203125,203.58803962930438,
1557947323885,,,,,,,,,195.58387754474984,
1557947323889,,15.708948878295955,0.0,,,,,,,
1557947323900,,,,0.980620323106786,,,,,195.23626189713116,47.438110037193034
1557947323929,,16.346577402797628,,,,,,,,
1557947323947,,,,,7.187613010406494,-5.396695613861084,-0.41181525588035583,,192.8925644457113,
1557947323955,,,,1.5069118834150328,,,,,197.41837073316685,46.68393192220575
1557947323968,,14.578064006798666,0.0,,,,,,,
1557947323971,0.0,,,,,,,,,
1557947323994,,,,,,,,1003.322021484375,,
1557947324004,,,,,6.7087578773498535,-4.723904132843018,-0.9720755815505981,,198.01069839836873,
1557947324011,,16.390435575811324,,,,,,,,
1557947324020,,,,2.1133619141476165,,,,,202.00429634569684,48.09893415565247
1557947324049,,16.464804133993045,,,,,,,,
1557947324070,,,,,5.837242126464844,-4.185192584991455,-1.673598051071167,,209.82614702092542,
1557947324089,,17.07251449106219,0.0,,,,,,,
1557947324098,0.0,,,1.8929144498473558,,,,1003.31884765625,202.95742192361536,49.71603766394203
1557947324125,,,,,7.3911261558532715,-6.450176239013672,-2.135693073272705,,204.2893771136596,
1557947324127,,,,,7.532388687133789,-6.615381240844727,-2.0878076553344727,,203.39572882303355,
1557947324129,,15.293375106601557,,,,,,,,
1557947324135,,,,1.593753066714459,,,,,205.34438179323809,49.88714093985651
1557947324169,,17.726093977156186,0.0,,,,,,,
1557947324184,,,,,6.32088565826416,-4.383917331695557,,,,
1557947324185,,,,,6.696786403656006,-4.194769382476807,-2.4900457859039307,1003.31640625,214.13685699103883,
1557947324207,,,,1.7154637217497921,,,,,197.15952022400165,
1557947324208,,,,,,,,,,49.925949475516234
1557947324209,0.0,17.496890007887874,,,,,,,,
1557947324249,,14.958887218112391,0.0,,,,,,,
1557947324259,,,,1.282245481864301,7.170853137969971,-4.503631114959717,-0.7446194887161255,,190.58800397823575,49.78778159884654
1557947324287,,,,,,,,1003.322265625,,
1557947324289,,12.320246274765218,,,,,,,,
1557947324315,,,,3.8559847006276633,9.598648071289062,-8.2817964553833,-0.4381522834300995,,183.17794540806722,50.25314376810399
1557947324316,0.0,,,,,,,,,
1557947324330,,20.002215223113076,,,,,,,,
1557947324368,,,,,11.078310012817383,-4.635315895080566,1.92020845413208,,163.08954945427197,
1557947324369,,24.5295842879003,0.0,,,,,,,
1557947324393,,,,6.016670591964216,,,,1003.327880859375,164.7795704813649,51.22049690819584
1557947324408,,17.567809575699304,,,,,,,,
1557947324418,0.0,,,,,,,,,
1557947324444,,,,2.578969458793739,14.703241348266602,-5.889915943145752,2.104567527770996,,179.95144236395754,52.86830648447037
1557947324448,,19.481461686024886,0.0,,,,,,,
1557947324488,,,,,8.796566009521484,,,1003.324951171875,,
1557947324489,,19.460828098807085,,,,,,,,
1557947324512,,,,1.2473120876968542,,,,,203.09505023539123,54.55583764780686
1557947324529,,13.502304323576908,0.0,,,,,,,
1557947324534,0.0,,,,,,,,,
1557947324556,,,,1.2039120069362426,8.054340362548828,-4.489265441894531,-2.6791934967041016,,214.23974696069592,54.10087009993813
1557947324569,,15.919348990261886,,,,,,,,
1557947324586,,,,,,,,1003.324462890625,,
1557947324608,,,,,6.768614768981934,-2.6576449871063232,-0.37590113282203674,,,
1557947324609,,14.367646498387368,,,,,,,192.71088141378902,
1557947324615,,,,3.478726585712377,,,,,207.552049197148,54.85381557359409
1557947324648,,15.493883852043957,0.0,,,,,,,
1557947324651,0.0,,,,,,,,,
1557947324670,,,,,5.9018874168396,-2.9641122817993164,,,,
1557947324671,,,,,,,-0.742225170135498,,196.37628877149803,
1557947324688,,16.602619257854155,,,,,,,,
1557947324689,,,,1.890395095340018,,,,,,
1557947324690,,,,,,,,1003.323974609375,195.32113382775776,54.25247681399049
1557947324725,,,,,7.235498428344727,-3.0598831176757812,,,,
1557947324726,,,,,,,-1.7933118343353271,,209.23227573297112,
1557947324729,,15.397984395485327,0.0,,,,,,,
1557947324735,,,,1.3954603161747576,,,,,201.55212416226368,54.769713179286725
1557947324758,0.0,,,,,,,,,
1557947324769,,21.693474897654493,,,,,,,,
1557947324784,,,,,7.855615615844727,-4.16124963760376,-1.6257126331329346,1003.320068359375,202.400064826964,
1557947324786,,,,,8.262641906738281,-3.7997140884399414,-0.9984126091003418,,196.03523010548258,
1557947324801,,,,1.310228789567088,,,,,,
1557947324802,,,,,,,,,197.6343686354794,54.599505480895296
1557947324810,,20.384958059271938,0.0,,,,,,,
1557947324844,,,,,7.649707794189453,,,,,
1557947324845,,,,,7.489291667938232,-3.126922845840454,-1.6448668241500854,,208.1288040310422,
1557947324849,,21.239904526262627,,,,,,,,
1557947324855,,,,2.808568622757905,,,,,199.4153814426952,55.661214960996126
1557947324867,0.0,,,,,,,,,
1557947324882,,,,,,,,1003.329345703125,,
1557947324888,,22.707910301679206,,,,,,,,
1557947324903,,,,,8.78219985961914,,,,,
1557947324904,,,,,10.700014114379883,-3.0455174446105957,0.821236252784729,,174.54757427756186,
1557947324921,,,,5.220006368932822,,,,,192.49227437921354,54.698085255203274
1557947324930,,20.354864622877685,0.0,,,,,,,
1557947324963,,,,,12.560365676879883,,,,,
1557947324964,,,,,9.80216121673584,-8.61220645904541,-0.9433442950248718,,190.47112578115843,
1557947324968,,18.898858328312834,,,,,,,,
1557947324980,,,,4.556890514338475,,,,,210.5734653387732,54.754987710800386
1557947324981,0.0,,,,,,,,,
1557947324983,,,,,,,,1003.333984375,,
1557947325009,,22.829600069282723,0.0,,,,,,,
1557947325023,,,,,7.410280704498291,-9.68244743347168,-5.470917701721191,,224.00309256787898,
1557947325034,,,,6.835785712600545,,,,,189.94837042284234,54.31143493198906
1557947325048,,17.75839045120601,,,,,,,,
1557947325081,0.0,,,,,,,,,
1557947325084,,,,,14.080730438232422,-6.165257453918457,0.5889915823936462,1003.33837890625,177.74269579015882,
1557947325088,,25.8499301998648,0.0,,,,,,,
1557947325102,,,,1.63086142168659,,,,,215.15508793212598,55.450191328287964
1557947325132,,21.49102108867686,,,,,,,,
1557947325144,,,,,6.560312747955322,-4.723904132843018,-1.3791022300720215,,201.2396293473572,
1557947325145,,,,,5.506832122802734,-4.28096342086792,-0.7685621976852417,,195.3752289259843,
1557947325154,,,,3.700964832805704,,,,,,
1557947325155,,,,,,,,,194.02302905524016,54.75239202147438
1557947325172,,15.167721397397841,,,,,,,,
1557947325185,,,,,,,,1003.34521484375,,
1557947325186,0.0,,,,,,,,,
1557947325207,,,,,5.174027919769287,-4.496448040008545,,,,
1557947325208,,,,,,-5.497254848480225,-1.6999350786209106,,206.56944452277162,
1557947325209,,16.004505664491894,0.0,,,,,,,
1557947325215,,,,2.461405972895028,,,,,210.2604377691115,56.103463780736504
1557947325249,,13.780928783310468,,,,,,,,
1557947325265,,,,,6.354405403137207,-5.121353626251221,-3.1077687740325928,,215.84440428354208,
1557947325284,,,,2.462052931116656,,,,,,
1557947325285,,,,,,,,1003.347900390625,205.7009040075344,56.18941529460099
1557947325289,,14.907099698403643,0.0,,,,,,,
1557947325298,0.0,,,,,,,,,
1557947325325,,,,,6.567495822906494,-3.289733648300171,-2.293715238571167,,214.23418718671155,
1557947325330,,13.063399134922271,,,,,,,,
1557947325335,,,,2.2496730778864165,,,,,218.0034134198047,56.463377140696764
1557947325368,,16.685369908915636,,,,,,,,
1557947325369,,,0.0,,,,,,,
1557947325383,,,,,,,,1003.353759765625,,
1557947325384,,,,,6.852414608001709,-3.7135202884674072,-2.7773587703704834,,217.088168071023,
1557947325402,0.0,,,1.375244335660103,,,,,209.49889899741174,57.523230536798735
1557947325409,,20.35790377263014,,,,,,,,
1557947325444,,,,,8.243488311767578,-5.846818923950195,-1.9106312990188599,,203.011639965247,
1557947325449,,21.357004308822802,0.0,,,,,,,
1557947325454,,,,2.3702496655458605,,,,,,
1557947325455,,,,,,,,,214.98657350492346,57.91292944375643
1557947325489,,27.03177282949621,,,,,,1003.3505859375,,
1557947325504,,,,,6.538764476776123,-5.15247917175293,-3.098191499710083,,215.37425504221335,
1557947325512,0.0,,,,,,,,,
1557947325515,,,,1.0438737693087778,,,,,210.38504774032918,59.77776565693751
1557947325528,,24.517368449719275,,,,,,,,
1557947325563,,,,,9.505270957946777,,,,,
1557947325564,,,,,,-6.565101623535156,-1.13009774684906,,194.91182791155552,
1557947325569,,22.140429643162662,0.0,,,,,,,
1557947325581,,,,4.0529543897357545,,,,,174.48033789537226,60.086457984048685
1557947325583,,,,,,,,1003.3564453125,,
1557947325608,,17.62007909504009,,,,,,,,
1557947325626,0.0,,,,11.174080848693848,-5.166844844818115,1.9489396810531616,,171.35778031251755,
1557947325634,,,,5.688214938323824,,,,,,
1557947325635,,,,,,,,,173.77584486362048,61.42672712304582
1557947325649,,20.54802764131555,0.0,,,,,,,
1557947325684,,,,,15.323358535766602,-3.071854591369629,2.446948766708374,1003.35791015625,176.11055378609257,
1557947325685,,,,,13.245128631591797,,,,,
1557947325689,,20.470760965070298,,,,,,,,
1557947325700,,,,4.514556652788869,,,,,199.6073097583726,62.42431199650013
1557947325729,,19.22128523525658,0.0,,,,,,,
1557947325751,0.0,,,,9.945817947387695,-4.95136022567749,-0.541106104850769,,197.21735826589338,
1557947325755,,,,1.7756080284502607,,,,,203.90371731236405,63.09061947023698
1557947325769,,19.45564039437589,,,,,,,,
1557947325782,,,,,,,,1003.355224609375,,
1557947325803,,,,,6.598621368408203,-3.38071608543396,-2.6600394248962402,,217.27147668796783,
1557947325804,,,,,,-2.7653872966766357,-1.5754327774047852,,208.23741769922373,
1557947325809,,18.79161570878412,,,,,,,,
1557947325819,,,,2.4822207533717138,,,,,,
1557947325820,,,,,,,,,193.23583609301784,62.92360977088419
1557947325849,,13.98412453082951,0.0,,,,,,,
1557947325866,,,,,7.939415454864502,-1.319245457649231,0.5794144868850708,,,
1557947325867,0.0,,,,,,-0.43336373567581177,,181.37513063702067,
1557947325889,,16.54190734918396,,,,,,,,
1557947325890,,,,3.483890380002018,,,,1003.362548828125,199.0546928130052,63.24036966706218
1557947325923,,,,,6.2155375480651855,-2.6480679512023926,-1.283331274986267,,206.94257775712936,
1557947325929,,21.677709742315194,0.0,,,,,,,
1557947325937,,,,1.914233328533574,6.560312747955322,-3.658451795578003,-1.3431881666183472,,203.9652709771642,63.56973803543186
1557947325969,,26.20891116010369,,,,,,,,
1557947325981,0.0,,,,,,,,,
1557947325983,,,,,6.538764476776123,-3.7566170692443848,-1.022355318069458,1003.362548828125,200.68290062810945,
1557947325984,,,,,6.282577037811279,-2.791724443435669,-1.6927522420883179,,211.6135938663394,
1557947326002,,,,2.9632781346790242,,,,,218.08197425563822,63.62031679027802
1557947326009,,16.95807172100093,0.0,,,,,,,
1557947326047,,,,,8.291373252868652,-2.609759569168091,-1.2617827653884888,,,
1557947326048,,,,,,,,,207.9408645458401,
1557947326050,,21.918823608157012,,,,,,,,
1557947326054,,,,2.455313222913428,,,,,,
1557947326055,,,,,,,,,206.4781385539469,63.293257942168246
1557947326082,0.0,,,,,,,,,
1557947326083,,,,,,,,1003.369384765625,,
1557947326089,,27.03591100792433,,,,,,,,
1557947326104,,,,,8.298556327819824,-2.233858346939087,-0.3423812985420227,,198.4708345823741,
1557947326106,,,,,8.016032218933105,-3.3711390495300293,,,,
1557947326107,,,,,,-5.205153465270996,0.2777358889579773,,187.65790746581365,
1557947326121,,,,,,,,,186.46616239905143,
1557947326122,,,,1.676991556945911,,,,,,64.10530281092373
1557947326128,,26.92233236431926,0.0,,,,,,,
1557947326164,,,,,11.480547904968262,-7.683228015899658,0.33998700976371765,,186.35003552278283,
1557947326169,,22.95023252614461,,,,,,,,
1557947326182,,,,5.510521794586099,,,,,183.6125640053334,
1557947326183,,,,,,,,1003.3662109375,,62.916343847227566
1557947326184,0.0,,,,,,,,,
1557947326213,,26.731432051783077,0.0,,,,,,,
1557947326223,,,,,10.434249877929688,-9.330489158630371,-0.876304566860199,,193.64157665047333,
1557947326225,,,,,10.817333221435547,-10.300169944763184,-3.8667538166046143,,210.2652872034222,
1557947326235,,,,7.993990548386663,,,,,223.27450262873538,63.72615693223137
1557947326249,,24.85737517600857,,,,,,,,
1557947326283,,,,,11.16450309753418,-8.734314918518066,-3.351984739303589,1003.3662109375,207.7629381179613,
1557947326284,0.0,,,,,,,,,
1557947326289,,24.528759974951605,0.0,,,,,,,
1557947326298,,,,2.8133230912291802,,,,,205.01813097734328,63.03844464823203
1557947326328,,31.34531077255812,,,,,,,,
1557947326343,,,,,8.200390815734863,-6.050332546234131,-1.082212209701538,,198.40880280433203,
1557947326354,,,,2.7719636681447772,,,,,188.06327919305386,63.810386917849456
1557947326368,,27.350165029180566,,,,,,,,
1557947326383,,,,,,,,1003.378173828125,,
1557947326392,0.0,,,,,,,,,
1557947326403,,,,,5.109382629394531,-2.3942747116088867,-0.14605076611042023,,193.1986662035547,
1557947326404,,,,,5.174027919769287,-2.011190891265869,-1.0367209911346436,,210.77779727798327,
1557947326408,,23.570311789734852,,,,,,,,
1557947326409,,,0.0,,,,,,,
1557947326414,,,,3.534021420926089,,,,,,
1557947326415,,,,,,,,,217.6195841092067,64.18566858109682
1557947326449,,17.99762399396321,,,,,,,,
1557947326464,,,,,5.985687255859375,-5.188393592834473,-2.8396098613739014,,217.20604347571907,
1557947326485,,,,3.015285018177341,,,,1003.380859375,219.8014060772972,64.56155913742805
1557947326489,,18.186103620607128,0.0,,,,,,,
1557947326502,0.0,,,,,,,,,
1557947326523,,,,,5.674431324005127,-3.3376190662384033,-1.5347301959991455,,209.86081706115237,
1557947326526,,,,,5.818087577819824,-3.1436827182769775,-1.3168511390686035,,207.68988241459886,
1557947326532,,18.876785267809655,,,,,,,,
1557947326536,,,,2.9099694518488266,,,,,212.35617203290315,64.29458282698472
1557947326569,,18.58060224159341,0.0,,,,,,,
1557947326583,,,,,6.0311784744262695,-3.6369035243988037,-2.2721667289733887,1003.380859375,216.52941761578097,
1557947326584,,,,,5.868367671966553,-4.257020473480225,,,,
1557947326595,,,,2.844961725658007,,,,,220.13441878047036,64.93213984448059
1557947326603,0.0,,,,,,,,,
1557947326608,,20.759440079724087,,,,,,,,
1557947326643,,,,,6.93142557144165,-5.5355634689331055,-2.4014575481414795,,210.25181807037893,
1557947326648,,23.543044823421276,,,,,,,,
1557947326654,,,,1.3834481798702882,,,,,206.46666383614127,65.03363298152689
1557947326682,,,,,,,,1003.387451171875,,
1557947326688,,25.641223427380922,0.0,,,,,,,
1557947326703,,,,,8.576292037963867,-5.5307745933532715,-1.453324794769287,,201.35324271401123,
1557947326727,0.0,,,3.0926533306229276,,,,,182.11048246344262,64.91137349787873
1557947326728,,18.311962850907854,,,,,,,,
1557947326768,,15.00610125194939,0.0,,,,,,,
1557947326780,,,,4.030184582820797,9.897932052612305,-6.502850532531738,0.8308133482933044,,182.48632045271165,66.53537153504216
1557947326783,,,,,,,,1003.400146484375,,
1557947326808,,16.506609800570395,,,,,,,,
1557947326826,,,,,15.347301483154297,-5.039948463439941,2.2769553661346436,,179.75690491601725,
1557947326834,,,,8.110558454709862,,,,,189.24543467422131,66.17597368970493
1557947326848,0.0,19.573906216101797,0.0,,,,,,,
1557947326888,,19.373944908502615,,,,,,,,
1557947326892,,,,,11.621809959411621,-3.2322709560394287,0.03591412305831909,1003.400146484375,199.89395913745966,
1557947326894,,,,0.9773124866684416,,,,,201.30896942781123,67.8127917291708
1557947326928,,20.939554493302598,,,,,,,,
1557947326960,,,,2.453858769979762,6.924242973327637,-4.623344421386719,-1.6328954696655273,,205.61120996335387,68.44803463826568
1557947326961,0.0,,,,,,,,,
1557947326969,,22.511331160814073,0.0,,,,,,,
1557947326982,,,,,,,,1003.4052734375,,
1557947327004,,,,,6.818894863128662,-1.9130256175994873,-0.8715160489082336,,203.45736445010368,
1557947327009,,21.712769292112853,,,,,,,,
1557947327022,,,,4.213707517071956,,,,,189.02745601704953,68.77447152734895
1557947327049,,21.088245668958866,0.0,,,,,,,
1557947327069,,,,,5.865973472595215,-2.664827823638916,0.07901106774806976,,188.22526395940986,
1557947327070,0.0,,,,,,,,,
1557947327089,,23.284709069681348,,,,,,,,
1557947327092,,,,2.3310005811365713,,,,1003.408935546875,200.93628698593864,67.41343720878272
1557947327122,,,,,6.847625732421875,,,,,
1557947327123,,,,,6.943397045135498,-2.631308078765869,-1.3719195127487183,,207.56581885851472,
1557947327129,,25.393627615927834,0.0,,,,,,,
1557947327134,,,,,,,,,204.01824592436674,
1557947327135,,,,2.4581131486294208,,,,,,66.88953282613285
1557947327168,,26.79776452331243,,,,,,,,
1557947327184,,,,,7.891529560089111,,,,,
1557947327206,,,,1.6441753663833287,,,,,194.7966982429059,66.15238668688751
1557947327209,,27.45788446774261,,,,,,,,
1557947327249,,24.62816334118081,0.0,,,,,,,
1557947327255,,,,,10.582695007324219,-5.485283374786377,,,,
1557947327256,,,,8.323409873153183,,-10.237918853759766,0.019154198467731476,,188.94345835063666,66.23374659098948
1557947327282,,,,,,,,1003.41015625,,
1557947327288,,25.78987905551608,,,,,,,,
1557947327295,0.0,,,,,,,,,
1557947327302,,,,,10.455798149108887,-8.63375473022461,-1.1564347743988037,,194.89928768423943,
1557947327303,,,,,9.069513320922852,-8.887548446655273,-3.6392977237701416,,210.86934913361813,
1557947327316,,,,6.413050470650557,,,,,212.91206746907216,64.70231554149451
1557947327328,,24.56847833136193,0.0,,,,,,,
1557947327368,,23.81201062591324,,,,,,,,
1557947327371,,,,,10.99211597442627,-8.9234619140625,-3.1364998817443848,,203.3248724405837,
1557947327391,,,,1.0717644970934237,,,,1003.412841796875,201.83634199400626,64.22836737053125
1557947327408,0.0,,,,,,,,,
1557947327412,,23.710751957876965,0.0,,,,,,,
1557947327422,,,,,8.482915878295898,-5.547534942626953,-1.6328954696655273,,,
1557947327423,,,,,8.051946640014648,-5.4421868324279785,-1.7047237157821655,,200.6467142858868,
1557947327434,,,,1.0387642798148025,,,,,201.92417822673258,64.0218269940128
1557947327448,,23.198116096932356,,,,,,,,
1557947327484,,,,,6.361588001251221,-3.8236567974090576,-1.3431881666183472,1003.412841796875,201.71663609861253,
1557947327489,,24.480574830533335,,,,,,,,
1557947327499,,,,3.923660054459538,,,,,210.58892888705407,63.920474644171065
1557947327509,0.0,,,,,,,,,
1557947327529,,23.90987145984145,0.0,,,,,,,
1557947327542,,,,,6.028783798217773,,,,,
1557947327543,,,,,7.017619609832764,-3.9290049076080322,-3.1388943195343018,,218.54433708131307,
1557947327554,,,,1.3873778590148729,,,,,212.34748403227889,63.90785678718717
1557947327569,,18.88417664843424,,,,,,,,
1557947327582,,,,,,,,1003.41650390625,,
1557947327602,,,,,6.363982677459717,,,,,
1557947327603,,,,,5.456552505493164,-4.015198707580566,-1.5490957498550415,,201.90909716904525,
1557947327609,,18.304693714021177,0.0,,,,,,,
1557947327615,,,,2.91097408810205,,,,,,
1557947327616,,,,,,,,,210.2643719580734,63.909291903092246
1557947327617,0.0,,,,,,,,,
1557947327649,,26.083574214543724,,,,,,,,
1557947327662,,,,,6.217931747436523,-3.6656346321105957,,,,
1557947327663,,,,,6.873962879180908,-3.3687446117401123,-3.225088119506836,,217.93071288627914,
1557947327675,,,,1.8118205934680838,,,,,204.72708295643065,64.67112137877098
1557947327682,,,,,,,,1003.43212890625,,
1557947327689,,22.405478333453182,0.0,,,,,,,
1557947327723,,,,,6.938608169555664,-6.028783798217773,-1.594586968421936,,197.14655652495708,
1557947327727,0.0,,,,6.914665699005127,-6.895511627197266,-1.673598051071167,,197.2038344913367,
1557947327729,,20.651917203190777,,,,,,,,
1557947327734,,,,0.9525751184894574,,,,,205.10987407827497,64.60721244267104
1557947327768,,21.041060329954053,,,,,,,,
1557947327783,,,,,7.946598052978516,-4.348002910614014,-2.2554068565368652,1003.43212890625,203.80457028637215,
1557947327784,,,,,,-6.103006362915039,-0.596174418926239,,188.23966199818028,
1557947327799,,,,3.390262848107836,,,,,178.20926601236238,64.96794849501796
1557947327809,,18.495941901377957,0.0,,,,,,,
1557947327834,0.0,,,,,,,,,
1557947327843,,,,,10.228342056274414,-6.852414608001709,0.8619389533996582,,176.87773429404675,
1557947327848,,15.399759968426414,,,,,,,,
1557947327854,,,,4.036071260002766,,,,,177.76632824468706,64.24484416892004
1557947327882,,,,,,,,1003.42724609375,,
1557947327888,,21.368229881082335,,,,,,,,
1557947327889,,,0.0,,,,,,,
1557947327903,,,,,13.491738319396973,-3.5866236686706543,1.8028889894485474,,171.96938277155715,
1557947327904,,,,,,-2.4086403846740723,2.506805658340454,,166.69405884534115,
1557947327926,,,,7.156299041180215,,,,,176.58372197103438,63.64328459812932
1557947327929,,24.06107427598095,,,,,,,,
1557947327948,0.0,,,,,,,,,
1557947327968,,18.435759783562045,0.0,,,,,,,
1557947327972,,,,,11.980951309204102,-3.7566170692443848,-0.3495641350746155,,190.43286306142795,
1557947327994,,,,4.492325914987117,,,,,221.65297473863927,
1557947327995,,,,,,,,1003.450439453125,,63.92928603689272
1557947328012,,17.95694836457821,,,,,,,,
1557947328022,,,,,6.921848297119141,,,,,
1557947328023,,,,,7.802941799163818,-4.371945858001709,-3.2705793380737305,,211.22289338543635,
1557947328040,,,,2.0220255399198437,,,,,182.50696128438346,64.07601077066202
1557947328049,,20.76324170625942,0.0,,,,,,,
1557947328064,0.0,,,,,,,,,
1557947328085,,,,,7.616188049316406,-2.286532402038574,-0.5889915823936462,1003.450439453125,186.72605109697042,
1557947328089,,14.53547140516945,,,,,,,,
1557947328103,,,,3.4700694281148756,,,,,191.77405266723008,63.99828792410599
1557947328129,,13.405048171229627,,,,,,,,
1557947328157,,,,2.841460259810271,6.213143348693848,-2.535537004470825,-1.302485466003418,,197.1260932782037,62.28722261754517
1557947328169,,16.412537123862492,0.0,,,,,,,
1557947328185,0.0,,,,,,,1003.462158203125,,
1557947328208,,17.47660137696155,,,,,,,,
1557947328216,,,,3.694465136808673,7.091842174530029,-2.0902018547058105,-1.939362645149231,,202.73427964343114,62.48733984639574
1557947328248,,18.88318973490128,0.0,,,,,,,
1557947328270,,,,,9.294574737548828,-0.5746259689331055,0.09098244458436966,,174.21188414023408,
1557947328271,,,,,,,,,173.30352362213574,
1557947328289,,20.154253400681537,,,,,,,,
1557947328297,0.0,,,1.8863444776491762,,,,1003.457763671875,178.79813760184422,62.41193957230634
1557947328323,,,,,11.095069885253906,-6.680026531219482,-0.7039167881011963,,182.34247666879128,
1557947328329,,23.524680147265062,0.0,,,,,,,
1557947328342,,,,5.04705810214725,,,,,,
1557947328343,,,,,,,,,180.46213925066513,62.38770803030956
1557947328368,,27.95562009200001,,,,,,,,
1557947328392,,,,,9.035993576049805,-8.559532165527344,-1.489238977432251,1003.457763671875,187.48906518953083,
1557947328395,,,,8.42731861843847,,,,,196.3445010711008,62.745740809799344
1557947328412,0.0,27.664663835951995,,,,,,,,
1557947328449,,29.169174499230927,0.0,,,,,,,
1557947328461,,,,,13.659337997436523,,,,,
1557947328462,,,,0.8835930875713317,11.825323104858398,-8.367990493774414,-3.7637999057769775,,194.0468390946868,62.480658573338175
1557947328484,,,,,,,,1003.45703125,,
1557947328488,,27.06538295915682,,,,,,,,
1557947328510,,,,,6.122160911560059,-3.3639562129974365,-0.2609759569168091,,178.57440792539128,
1557947328514,,,,3.177763185563926,,,,,177.20961318581766,62.00865775945494
1557947328529,,25.83880267203927,0.0,,,,,,,
1557947328532,0.0,,,,,,,,,
1557947328569,,18.73558495752495,,,,,,,,
1557947328578,,,,2.2565618833090144,6.732700824737549,-4.189980983734131,-1.0893950462341309,,183.1951438243973,62.652211571970945
1557947328581,,,,,,,,1003.463134765625,,
1557947328610,,20.05953938246508,0.0,,,,,,,
1557947328629,,,,,6.818894863128662,-5.9354071617126465,-3.44057297706604,,203.44863546834438,
1557947328634,,,,2.0199423985719456,,,,,190.8226209762256,63.05237628607461
1557947328649,0.0,12.590041185171444,,,,,,,,
1557947328683,,,,,6.426233768463135,-3.7135202884674072,-2.109356164932251,1003.460205078125,193.82821839973303,
1557947328689,,14.807009619035066,,,,,,,,
1557947328701,,,,1.4844071234188552,,,,,188.53651567988732,63.10174644285359
1557947328729,,14.446801965461535,0.0,,,,,,,
1557947328753,,,,,7.407886028289795,-5.090228080749512,-2.3392064571380615,,,
1557947328754,,,,,,,-3.38071608543396,,191.5386843484314,62.22442567636751
1557947328755,0.0,,,2.074619060616571,,,,,,
1557947328769,,12.640732368847807,,,,,,,,
1557947328782,,,,,,,,1003.470458984375,,
1557947328803,,,,,7.965752124786377,-4.802915096282959,-3.404658794403076,,199.98805182346575,
1557947328804,,,,,,,,,201.57783299429957,
1557947328809,,14.993098296876585,0.0,,,,,,,
1557947328825,,,,1.9873334802889628,,,,,,
1557947328826,,,,,,,,,199.3287746440194,62.48443116045046
1557947328851,,21.806871835158038,,,,,,,,
1557947328871,0.0,,,,7.3911261558532715,-3.4621214866638184,-4.027170181274414,,206.8976624331474,
1557947328874,,,,2.159819150700565,,,,,202.75676462617878,
1557947328888,,21.882922038030976,,,,,,,,
1557947328889,,,0.0,,,,,,,
1557947328892,,,,,,,,,,62.20920589352872
1557947328893,,,,,,,,1003.474609375,,
1557947328922,,,,,7.867587089538574,-7.338452339172363,-2.2506182193756104,,187.00072032425328,
1557947328923,,,,,14.29382038116455,-11.236331939697266,1.7765519618988037,,160.95652235761202,
1557947328928,,19.455221760969387,,,,,,,,
1557947328936,,,,9.523242425837406,,,,,,
1557947328937,,,,,,,,,159.9675246261725,62.51461504697715
1557947328969,,21.037804574649424,,,,,,,,
1557947328984,0.0,,,,13.065557479858398,-7.285778045654297,2.6767992973327637,1003.477783203125,152.20888052152324,
1557947329006,,,,6.176990561943878,,,,,137.40775130707888,62.67447099732816
1557947329009,,21.331948180488446,0.0,,,,,,,
1557947329049,,19.589953967244114,,,11.978556632995605,0.8044763207435608,4.9753031730651855,,,
1557947329050,,,,,,,,,117.18470864645167,
1557947329054,,,,4.505180555783526,,,,,153.06292737534162,62.39794973056902
1557947329089,,16.47928257168387,0.0,,,,,,,
1557947329091,0.0,,,,,,,1003.47998046875,,
1557947329102,,,,,10.474952697753906,-6.7446722984313965,0.19633053243160248,,,
1557947329103,,,,,9.653716087341309,-8.224333763122559,0.023942748084664345,,167.0430815119288,
1557947329115,,,,2.9218446454598075,,,,,168.42817557371566,62.62936566836366
1557947329128,,15.677356928151685,,,,,,,,
1557947329162,,,,,7.769421577453613,-5.279376029968262,-0.17478206753730774,,,
1557947329163,,,,,7.958569526672363,-3.5483152866363525,-0.7110996246337891,,167.5645801154376,
1557947329169,,17.877969094225985,0.0,,,,,,,
1557947329173,,,,3.3141721427654183,,,,,,
1557947329174,,,,,,,,,174.41818317392514,62.3886019004041
1557947329182,,,,,,,,1003.478271484375,,
1557947329198,0.0,,,,,,,,,
1557947329209,,12.700500134309507,,,,,,,,
1557947329222,,,,,7.357606410980225,,,,,
1557947329223,,,,,7.63294792175293,-0.1532335877418518,-1.1229149103164673,,166.2557246251664,
1557947329242,,,,1.4691912211535214,,,,,171.6544837300629,62.10463583518602
1557947329249,,14.012363773012666,,,,,,,,
1557947329287,,,,,7.891529560089111,-4.178009510040283,-1.6975408792495728,,,
1557947329288,,,,,,,,1003.484375,178.27591499828338,
1557947329289,,20.923183471502192,0.0,,,,,,,
1557947329310,0.0,,,1.7828816085379495,,,,,166.63831084133548,62.521523473705855
1557947329329,,20.36363607680839,,,,,,,,
1557947329357,,,,3.142412730168275,8.818114280700684,-2.9617178440093994,-0.7853221297264099,,166.23388168020068,61.37603829650864
1557947329369,,17.707852407642168,0.0,,,,,,,
1557947329382,,,,,,,,1003.4892578125,,
1557947329404,,,,,11.238725662231445,-4.058295726776123,,,,
1557947329405,,,,,,-3.7661943435668945,-1.874717116355896,,172.09688874298297,
1557947329414,,20.483532687022617,,,,,,,,
1557947329431,0.0,,,2.786836906218951,,,,,179.40366119252252,61.831245081552105
1557947329449,,19.17955400285358,0.0,,,,,,,
1557947329474,,,,,9.92426872253418,-2.14048171043396,-2.4661030769348145,,178.11761853407916,
1557947329475,,,,3.9368501157166453,,,,,149.21754453300278,61.59405187293744
1557947329481,,,,,,,,1003.486083984375,,
1557947329488,,25.7768129240023,,,,,,,,
1557947329522,,,,,11.516461372375488,-6.773403644561768,2.918621063232422,,142.59350413251937,
1557947329528,,32.55723771605696,,,,,,,,
1557947329540,,,,3.7945627463723968,,,,,136.36157123190802,60.87776761687843
1557947329541,0.0,,,,,,,,,
1557947329569,,37.525766475217665,,,,,,,,
1557947329570,,,214.62890625,,,,,,,
1557947329582,,,,,5.980898380279541,-4.635315895080566,1.8052831888198853,1003.49609375,143.32388358122552,
1557947329583,,,,,6.550735950469971,-5.078257083892822,1.2737542390823364,,149.2631838570368,
1557947329597,,,,2.452671859583637,,,,,144.84533553960253,
1557947329598,,,,,,,,,,60.19689657501609
1557947329609,,26.535286272357027,214.62890625,,,,,,,
1557947329642,0.0,,,,9.87398910522461,-5.770202159881592,3.658451795578003,,135.498781735952,
1557947329643,,,,,,-3.284945011138916,3.9888617992401123,,131.7375741449444,
1557947329648,,26.853578035704192,,,,,,,,
1557947329649,,,214.62890625,,,,,,,
1557947329654,,,,3.822155591719098,,,,,128.60828199556806,60.79909828993069
1557947329681,,,,,,,,1003.49169921875,,
1557947329689,,26.884309209819698,,,,,,,,
1557947329704,,,,,9.821314811706543,-3.004814863204956,1.4652961492538452,,138.67685509638062,
1557947329724,,,,1.3159181499304142,,,,,151.36073495114772,
1557947329725,,,,,,,,,,60.88217274216157
1557947329729,,21.962601759601014,0.0,,,,,,,
1557947329747,0.0,,,,,,,,,
1557947329769,,29.78101809069067,,,,,,,,
1557947329771,,,,,6.711152076721191,-5.267404556274414,-0.3591412305831909,,157.06640177620957,
1557947329795,,,,2.0803216782662957,,,,1003.4931640625,148.69864140137858,60.17269967690891
1557947329810,,26.809800856831085,,,,,,,,
1557947329823,,,,,7.398309230804443,-5.628940105438232,-0.13407939672470093,,146.4531893909802,
1557947329849,,,,1.2566691823743603,,,,,137.53397320294073,59.46257119841023
1557947329850,0.0,25.383703728194035,0.0,,,,,,,
1557947329883,,,,,7.529994487762451,-4.9753031730651855,1.393467903137207,,,
1557947329888,,19.183953186253365,,,,,,,,
1557947329899,,,,1.8637718978199214,,,,,130.45118997704256,57.21839120370573
1557947329928,,15.159699106217436,,,,,,,,
1557947329929,,,0.0,,,,,,,
1557947329944,,,,,7.419857501983643,-5.988081455230713,0.9289786219596863,,135.6315742737954,
1557947329954,,,,2.029150009348006,,,,,133.6159717893463,55.08362719535448
1557947329965,0.0,,,,,,,,,
1557947329969,,20.97522123769995,,,,,,,,
1557947329987,,,,,,,,1003.489990234375,,
1557947330009,,,,,7.910684108734131,-6.498061656951904,0.6273000240325928,,138.05366863650863,
1557947330010,,17.63088276335115,0.0,,,,,,,
1557947330013,,,,0.8676836123995927,,,,,,
1557947330014,,,,,,,,,140.90560046406912,55.481637938251595
1557947330049,,15.381329741474449,,,,,,,,
1557947330075,0.0,,,,8.509252548217773,-5.5044379234313965,-1.132491946220398,,146.07000211816415,55.58804653945411
1557947330079,,,,4.140452485719287,,,,,,
1557947330085,,,,,,,,1003.489990234375,,
1557947330089,,15.750476985974046,,,,,,,,
1557947330122,,,,,8.447001457214355,-4.482082366943359,-3.16044282913208,,156.51220022695475,
1557947330129,,16.62945116380627,0.0,,,,,,,
1557947330137,,,,1.7370880489357035,,,,,148.40932824851518,53.71209814358018
1557947330169,,23.502974750754625,,,,,,,,
1557947330175,0.0,,,,,,,,,
1557947330182,,,,,8.810931205749512,-4.204346656799316,-3.2083282470703125,1003.498779296875,153.45409230910826,
1557947330194,,,,1.9844988686656153,,,,,153.25511523820745,52.723889126808096
1557947330208,,19.062238410665742,0.0,,,,,,,
1557947330246,,,,,9.107821464538574,-5.858790397644043,-1.3216396570205688,,140.76749403905148,
1557947330249,,22.866517044424572,,,,,,,,
1557947330253,,,,8.904778181565817,,,,,129.14645992103004,
1557947330254,,,,,,,,,,52.428499401910535
1557947330279,0.0,,,,,,,,,
1557947330281,,,,,,,,1003.4912109375,,
1557947330288,,16.97070124869085,,,,,,,,
1557947330289,,,0.0,,,,,,,
1557947330304,,,,,10.218765258789062,-8.482915878295898,3.7637999057769775,,117.61102173368721,
1557947330305,,,,,8.150111198425293,-4.556304931640625,2.449343204498291,,115.01910154745076,
1557947330314,,,,4.40113501214648,,,,,106.63761932257722,50.79363925909098
1557947330329,,16.868469561191713,,,,,,,,
1557947330368,,21.567008958355395,,,,,,,,
1557947330372,,,,,4.7262983322143555,0.371112585067749,0.9840469360351562,,86.15902513415398,
1557947330374,,,,,,,,,93.20481605550737,50.24035501318065
1557947330395,,,,6.11628819818378,,,,1003.494384765625,,
1557947330396,0.0,,,,,,,,,
1557947330413,,26.35679749680634,0.0,,,,,,,
1557947330422,,,,,9.687235832214355,-5.576265811920166,6.620169639587402,,104.08780042238473,
1557947330439,,,,3.9090441666725986,,,,,132.36511826550685,48.82171491655161
1557947330448,,18.617856166321612,,,,,,,,
1557947330483,,,,,8.037580490112305,-5.638517379760742,1.6520496606826782,1003.496826171875,130.40552333225185,
1557947330488,,17.665957713053363,0.0,,,,,,,
1557947330504,,,,3.007718171461214,,,,,106.95721070403127,49.24570753063346
1557947330505,0.0,,,,,,,,,
1557947330528,,16.15089590839284,,,,,,,,
1557947330544,,,,,8.478127479553223,-2.7342617511749268,2.3152637481689453,,112.49270336592224,
1557947330553,,,,1.2954480697311797,,,,,128.95130775606444,49.00038689039236
1557947330568,,16.407191198484895,0.0,,,,,,,
1557947330582,,,,,,,,1003.494140625,,
1557947330601,,,,,8.128562927246094,,,,,
1557947330602,,,,,8.020820617675781,-3.8045027256011963,-0.5698373913764954,,139.20779302132237,
1557947330611,0.0,,,,,,,,,
1557947330612,,12.804993937977436,,,,,,,,
1557947330613,,,,1.5052481869324095,,,,,143.54682095573472,49.4884349810775
1557947330648,,16.266184886372482,0.0,,,,,,,
1557947330663,,,,,8.308133125305176,-4.429408550262451,-0.337592750787735,,138.7379443083172,
1557947330673,,,,1.183412745770645,,,,,132.28296475016992,48.32622803555604
1557947330683,,,,,,,,1003.4931640625,,
1557947330688,,13.145550755624873,,,,,,,,
1557947330714,0.0,,,,,,,,,
1557947330721,,,,,8.176448822021484,-3.507612705230713,-0.004788549616932869,,131.60911194703482,
1557947330722,,,,,8.066311836242676,-3.7087316513061523,0.04070267081260681,,132.7255746687651,
1557947330728,,13.699874358552929,,,,,,,,
1557947330733,,,,1.1865494587874557,,,,,133.73121074102275,49.20190243117933
1557947330768,,14.51044596361702,0.0,,,,,,,
1557947330781,,,,,7.309720993041992,,,,,
1557947330782,,,,,7.199584484100342,-3.9146392345428467,0.11013664305210114,1003.49169921875,135.28899930578424,
1557947330803,,,,1.7038763646194561,,,,,130.78104713281914,48.5519013112381
1557947330808,,14.352219255224918,,,,,,,,
1557947330814,0.0,,,,,,,,,
1557947330842,,,,,8.032792091369629,-2.88031268119812,0.15802213549613953,,125.33626621329512,
1557947330849,,15.426518539493973,0.0,,,,,,,
1557947330853,,,,1.7715287208263852,,,,,121.34626094547042,47.91964500099525
1557947330881,,,,,,,,1003.49951171875,,
1557947330889,,12.731194313575976,,,,,,,,
1557947330902,,,,,8.621783256530762,-2.9856607913970947,-0.22506183385849,,126.97918625587164,
1557947330916,,,,1.1215919158725836,,,,,134.54491849760305,49.6229748627401
1557947330918,0.0,,,,,,,,,
1557947330928,,16.40994939225816,0.0,,,,,,,
1557947330965,,,,,8.674457550048828,-2.877918243408203,-1.2953026294708252,,132.22580972719527,
1557947330969,,19.435219950722924,,,,,,,,
1557947330973,,,,2.6976808619211945,,,,,121.12800908073183,50.22103885704142
1557947330995,,,,,,,,1003.494873046875,,
1557947331008,,20.859378591407722,,,,,,,,
1557947331025,,,,,8.834874153137207,-0.8499675393104553,-0.3136500120162964,,109.10581063199885,
1557947331026,0.0,,,,,,,,,
1557947331033,,,,1.097267434976619,,,,,122.42940600442938,
1557947331034,,,,,,,,,,51.21181726137559
1557947331049,,20.46939112516486,0.0,,,,,,,
1557947331082,,,,,11.552375793457031,-5.89231014251709,0.13168510794639587,1003.490478515625,129.5640850076413,
1557947331088,,18.419741771786807,,,,,,,,
1557947331104,,,,4.541084928906634,,,,,132.33301637640778,50.4804333205563
1557947331129,0.0,27.26954409911641,0.0,,,,,,,
1557947331153,,,,,7.927443981170654,-8.727131843566895,0.21548473834991455,,137.69804800718276,
1557947331155,,,,6.902415043668309,,,,,138.6242216586365,49.833565057627695
1557947331168,,30.052863261224985,,,,,,,,
1557947331181,,,,,,,,1003.495849609375,,
1557947331202,,,,,10.649734497070312,-10.944230079650879,0.12689656019210815,,135.36780602842785,
1557947331209,,25.03891003222394,0.0,,,,,,,
1557947331214,,,,2.4375783467539502,,,,,138.51601780180516,
1557947331215,,,,,,,,,,49.40598250226855
1557947331234,0.0,,,,,,,,,
1557947331248,,22.857154596751506,,,,,,,,
1557947331262,,,,,7.869981288909912,-6.514821529388428,-1.1995316743850708,,141.6065417974525,
1557947331273,,,,1.2859328685876406,,,,,141.82059992604073,50.09960329113444
1557947331281,,,,,,,,1003.501708984375,,
1557947331288,,15.137278226662863,,,,,,,,
1557947331322,,,,,8.020820617675781,-5.061496734619141,-1.192348837852478,,134.56098310253094,
1557947331328,,14.939667479918178,,,,,,,,
1557947331329,,,0.0,,,,,,,
1557947331333,,,,2.195524809538835,,,,,136.83744417176115,50.72743512369674
1557947331349,0.0,,,,,,,,,
1557947331369,,16.9079859744189,,,,,,,,
1557947331385,,,,,5.827664852142334,-4.175615310668945,-1.6759923696517944,1003.50634765625,146.26249050935346,
1557947331386,,,,,,,,,148.90418911426093,
1557947331408,,16.677863843703655,0.0,,,,,,,
1557947331410,,,,2.4753551729230088,,,,,143.67082987030548,50.239385123467045
1557947331449,,16.43682028326776,,,,,,,,
1557947331457,0.0,,,2.5899440924306654,5.96174430847168,-5.030371189117432,-1.0798178911209106,,140.63364965207592,50.07416130272383
1557947331481,,,,,,,,1003.509033203125,,
1557947331489,,14.76184690579824,0.0,,,,,,,
1557947331506,,,,,6.268211364746094,-4.628133296966553,-1.8842942714691162,,146.65258993360956,
1557947331529,,13.027867583358685,,2.324536521409736,,,,,147.35115436116178,50.82779236899547
1557947331569,,15.5335179297289,,,,,,,,
1557947331582,,,,,7.316903591156006,,,,,
1557947331583,0.0,,,2.1703541871826,,-3.38071608543396,-3.282550811767578,1003.504638671875,147.20937329437066,50.67954426536452
1557947331619,,15.06724331619832,0.0,,,,,,,
1557947331622,,,,,7.541965484619141,-3.6464805603027344,-1.9249969720840454,,135.14473205013525,
1557947331623,,,,,6.435810565948486,-5.367964267730713,-2.0375277996063232,,149.09781131685247,
1557947331638,,,,2.1510253856372223,,,,,148.146338644713,51.50869793979744
1557947331649,,20.436117471064144,,,,,,,,
1557947331689,,19.403702092473836,0.0,,,,,,,
1557947331693,0.0,,,,5.789356708526611,-6.352011203765869,-2.4014575481414795,1003.510986328125,157.24129560009692,
1557947331697,,,,1.9269169366153889,,,,,150.2125801516686,51.31645296834739
1557947331730,,21.98728759138443,,,,,,,,
1557947331744,,,,,9.395133972167969,-7.719141960144043,-0.2729473412036896,,129.91396827806437,
1557947331753,,,,6.514837789206861,,,,,117.33711748759134,51.14706758367173
1557947331769,,22.395647534493712,0.0,,,,,,,
1557947331795,0.0,,,,,,,1003.510498046875,,
1557947331801,,,,,11.95221996307373,-4.6999616622924805,1.3647366762161255,,,
1557947331802,,,,,11.684061050415039,-2.106961727142334,1.1085492372512817,,111.34019090575265,
1557947331810,,15.982891380320455,,,,,,,,
1557947331822,,,,5.700358182126893,,,,,93.09744548175479,51.59113643072627
1557947331849,,17.79139024273522,,,,,,,,
1557947331867,,,,,14.159741401672363,-1.5897984504699707,3.167625665664673,,97.18303241682463,
1557947331873,,,,4.425337982201344,,,,,120.10070764842689,50.5044981708073
1557947331889,,19.30495072617113,0.0,,,,,,,
1557947331891,,,,,,,,1003.511474609375,,
1557947331918,0.0,,,,,,,,,
1557947331922,,,,,9.689630508422852,-5.95216703414917,-0.09337671846151352,,127.58599392211391,
1557947331928,,17.08139439021878,,,,,,,,
1557947331945,,,,2.451203875693751,,,,,127.83696239297686,50.45949870054464
1557947331969,,15.706501422065223,0.0,,,,,,,
1557947331990,,,,,6.787769317626953,-4.764606952667236,-0.38068968057632446,1003.51123046875,128.7981202733594,
1557947331994,,,,2.278372530577921,,,,,120.41847536937257,52.072703900614584
1557947332010,,13.65362745089195,,,,,,,,
1557947332043,0.0,,,,7.735901832580566,-1.4245935678482056,-0.8523618578910828,,108.91722227882565,
1557947332049,,14.015978456960985,0.0,,,,,,,
1557947332053,,,,3.501106768412069,,,,,119.93301284392476,51.55019682881975
1557947332089,,17.66064488061544,,,,,,,,
1557947332097,,,,,,,,1003.51416015625,,
1557947332102,,,,,6.110189437866211,-3.687183141708374,-1.2617827653884888,,133.98619536311767,
1557947332103,,,,,6.725517749786377,-2.7127132415771484,-0.9457385540008545,,121.8916105695609,
1557947332127,,,,2.6349893959888866,,,,,121.92674506265146,51.90804351197452
1557947332131,,19.90217500649635,,,,,,,,
1557947332154,0.0,,,,,,,,,
1557947332169,,22.80548433227718,0.0,,,,,,,
1557947332182,,,,2.743315809648923,7.0224080085754395,-1.6185297966003418,-0.8499675393104553,1003.520263671875,110.95205174578834,51.74564172312736
1557947332209,,18.177646810487964,,,,,,,,
1557947332221,,,,,8.348835945129395,,,,,
1557947332222,,,,,8.777411460876465,-2.9832663536071777,-0.8044763207435608,,118.49803108044009,
1557947332237,,,,2.2889074071219406,,,,,,
1557947332238,,,,,,,,,106.13206921078037,52.991853086605744
1557947332249,,21.05759208502444,0.0,,,,,,,
1557947332263,0.0,,,,,,,,,
1557947332289,,23.7547386995079,,,,,,,,
1557947332291,,,,,9.744698524475098,,,,,
1557947332292,,,,,11.691244125366211,-3.60098934173584,0.706311047077179,1003.520263671875,109.70876607154923,
1557947332297,,,,6.386584956549671,,,,,117.42074632378899,52.55838857227234
1557947332331,,28.104474122796425,0.0,,,,,,,
1557947332364,,,,2.392717629861493,12.308966636657715,-6.792557716369629,1.331216812133789,,113.36431063609677,53.13537801133723
1557947332365,0.0,,,,,,,,,
1557947332369,,21.828288838866726,,,,,,,,
1557947332387,,,,,,,,1003.53125,,
1557947332409,,19.797119602088426,,,,,,,,
1557947332411,,,,,10.106233596801758,-10.024828910827637,-2.7989072799682617,,143.12356779324736,
1557947332413,,,,7.814091634743726,,,,,154.16865303969666,51.395908325612375
1557947332449,,23.367262727372392,0.0,,,,,,,
1557947332462,,,,,9.773429870605469,-7.829278469085693,-2.542719841003418,,135.2344807358292,
1557947332463,,,,,9.524425506591797,-6.335251331329346,-1.1157320737838745,,123.09610076931432,
1557947332473,,,,0.4750776139645368,,,,,119.32300864915089,52.56948362152368
1557947332484,,,,,,,,1003.53662109375,,
1557947332486,0.0,,,,,,,,,
1557947332488,,24.101265904837092,,,,,,,,
1557947332529,,17.655072076420076,0.0,,,,,,,
1557947332530,,,,,7.994483470916748,-4.549122333526611,-0.8236305117607117,,118.89157292003787,
1557947332533,,,,2.35600484690791,,,,,118.35832639115665,52.738360106542004
1557947332569,,16.134558792629615,,,,,,,,
1557947332581,,,,,5.813299179077148,,,,,
1557947332582,,,,,5.763019561767578,-3.502824068069458,-1.393467903137207,1003.53662109375,125.97480693842124,
1557947332597,,,,2.7205802632322693,,,,,143.35393641357356,53.069210434512584
1557947332598,0.0,,,,,,,,,
1557947332609,,18.309165673435167,0.0,,,,,,,
1557947332644,,,,,6.33285665512085,-5.444581031799316,-2.1237218379974365,,139.88521118320423,
1557947332648,,22.81443075407106,,,,,,,,
1557947332652,,,,2.561975006660568,,,,,,
1557947332653,,,,,,,,,133.1548793788571,
1557947332682,,,,,,,,1003.549560546875,,
1557947332689,,26.741297367089878,,,,,,,,
1557947332703,0.0,,,,6.225114345550537,-3.4812755584716797,-1.7861289978027344,,127.1146972090047,
1557947332721,,,,2.6810074383050164,,,,,130.01810134215037,53.37336554036174
1557947332729,,28.88269937833476,0.0,,,,,,,
1557947332762,,,,,6.270605564117432,-3.351984739303589,-2.0231621265411377,,129.57311451772406,
1557947332768,,24.657511501210834,,,,,,,,
1557947332773,,,,1.4955393907058523,,,,,129.36646031419616,53.7399730546797
1557947332781,,,,,,,,1003.54443359375,,
1557947332812,0.0,,,,,,,,,
1557947332816,,23.89051511497029,0.0,,,,,,,
1557947332822,,,,,7.407886028289795,-5.490072250366211,-2.88031268119812,,137.64851547532183,
1557947332833,,,,2.6534436828663446,,,,,149.23012574145395,54.7635655898453
1557947332849,,25.39679080251883,,,,,,,,
1557947332883,,,,,8.229122161865234,-7.13254451751709,-1.9872480630874634,1003.54443359375,134.4968749469812,
1557947332888,,24.103209286073515,0.0,,,,,,,
1557947332902,,,,5.128243141277961,,,,,111.66136689109416,54.10745877987759
1557947332913,0.0,,,,,,,,,
1557947332930,,24.24567758743159,,,,,,,,
1557947332941,,,,,9.976943016052246,,,,,
1557947332942,,,,,,-6.299336910247803,1.2019259929656982,,110.06860092759302,
1557947332953,,,,3.357020488932165,,,,,98.49043307680262,54.313587750287404
1557947332969,,20.89201975565681,,,,,,,,
1557947332980,,,,,,,,1003.554931640625,,
1557947333001,,,,,12.378400802612305,-2.348783493041992,1.7358492612838745,,92.32939070958685,
1557947333012,,22.619691878776305,0.0,,,,,,,
1557947333020,,,,3.5862874710077315,,,,,,
1557947333021,,,,,,,,,100.98065857648669,53.35231405198697
1557947333022,0.0,,,,,,,,,
1557947333048,,24.1924184113171,,,,,,,,
1557947333070,,,,,10.1852445602417,-4.776578426361084,0.3304099142551422,,110.56327737823119,
1557947333073,,,,1.81249618529872,,,,,116.31619545197123,54.28653881989875
1557947333089,,24.88099650979548,0.0,,,,,,,
1557947333096,,,,,,,,1003.548095703125,,
1557947333121,,,,,8.166871070861816,,,,,
1557947333122,,,,,7.295355319976807,-4.886714935302734,-0.7039167881011963,,118.28027098932174,
1557947333129,,25.201945337736944,,,,,,,,
1557947333140,,,,2.065272923646051,,,,,112.85848731673312,54.12066495871732
1557947333141,0.0,,,,,,,,,
1557947333169,,22.239618938046366,0.0,,,,,,,
1557947333185,,,,,7.300143718719482,-2.7486274242401123,-1.1205205917358398,1003.548095703125,109.43827008984925,
1557947333206,,,,2.983912886547118,,,,,,
1557947333207,,,,,,,,,108.25625804265434,54.26116916248256
1557947333214,,18.416410531513566,,,,,,,,
1557947333241,,,,,6.275394439697266,-2.825244188308716,-0.8643332123756409,,112.53468170856115,
1557947333248,0.0,,,,6.735095024108887,-2.882706880569458,-1.5227587223052979,,115.22485416600824,
1557947333250,,19.217513373594354,,,,,,,,
1557947333252,,,,2.2536014767336923,,,,,,
1557947333253,,,,,,,,,112.66171639693422,54.13270241419188
1557947333288,,,,,,,,1003.552001953125,,
1557947333289,,18.12936082080809,0.0,,,,,,,
1557947333301,,,,,7.625765323638916,,,,,
1557947333302,,,,,7.75266170501709,-2.351177930831909,-0.931372880935669,,103.54842038362881,
1557947333317,,,,3.288990155871915,,,,,92.6093260127198,54.573257614972974
1557947333329,,21.76816119265269,,,,,,,,
1557947333358,0.0,,,,,,,,,
1557947333363,,,,,8.066311836242676,-1.7119064331054688,0.08379961550235748,,94.37480013957384,
1557947333369,,27.190079133859527,0.0,,,,,,,
1557947333373,,,,0.24201546988813832,,,,,110.76988377043492,54.526694610854655
1557947333381,,,,,,,,1003.560302734375,,
1557947333409,,28.86155189846587,,,,,,,,
1557947333421,,,,,10.431855201721191,-6.562707424163818,-0.572231650352478,,113.35846399416721,
1557947333435,,,,6.612690267727976,,,,,109.54883719213342,54.99068006337436
1557947333449,,29.85879681024123,0.0,,,,,,,
1557947333459,0.0,,,,,,,,,
1557947333486,,,,,11.226754188537598,-6.275394439697266,0.8116591572761536,1003.560302734375,104.70479873086867,
1557947333488,,23.33590057685079,,,,,,,,
1557947333509,,,,3.739992903840376,,,,,133.31021154096152,53.20541985233467
1557947333530,,26.62952606088949,0.0,,,,,,,
1557947333541,,,,,9.529213905334473,-9.9003267288208,-3.5794408321380615,,137.56681275247013,
1557947333551,,,,,9.342460632324219,-10.240313529968262,-2.4684972763061523,,132.32221101714083,
1557947333553,,,,4.665452912843297,,,,,124.15794929844117,53.7716170598096
1557947333568,,30.066653810460473,,,,,,,,
1557947333570,0.0,,,,,,,,,
1557947333590,,,,,,,,1003.567626953125,,
1557947333601,,,,,9.847652435302734,-7.118178844451904,-2.044710636138916,,119.40998427804186,
1557947333609,,27.525349078951457,,,,,,,,
1557947333612,,,,0.4976931793308494,,,,,,
1557947333613,,,,,,,,,108.28960302618236,53.60391248179293
1557947333648,,22.15532358071667,,,,,,,,
1557947333649,,,0.0,,,,,,,
1557947333666,,,,,6.95297384262085,-3.4573328495025635,-1.0295381546020508,,105.78105895914425,
1557947333672,,,,3.8523176277062525,,,,,103.60525438771248,54.15726950925653
1557947333689,,20.512706817412415,,,,,,,,
1557947333693,0.0,,,,,,,1003.585693359375,,
1557947333721,,,,,5.549929141998291,-3.004814863204956,-1.9273911714553833,,116.51569161724893,
1557947333722,,,,,6.9290313720703125,-5.276981830596924,-2.5211713314056396,,127.45245006346181,
1557947333728,,21.82683414338875,0.0,,,,,,,
1557947333740,,,,1.8775998211165328,,,,,126.79287235569203,52.761155850487036
1557947333769,,21.933723045821797,,,,,,,,
1557947333794,,,,,6.603409767150879,-4.889109134674072,-2.6815876960754395,,,
1557947333795,0.0,,,3.0304306338638005,,,,1003.585693359375,128.2018857399523,53.93586014795635
1557947333816,,19.70824776378089,0.0,,,,,,,
1557947333849,,21.513406598668936,,,,,,,,
1557947333854,,,,1.110879442117016,6.2418742179870605,-4.747847080230713,-2.5283541679382324,,128.77428291315604,
1557947333855,,,,,,,,,,53.20518444798271
1557947333882,,,,,,,,1003.58544921875,,
1557947333889,,23.221079048542457,,,,,,,,
1557947333916,0.0,,,2.3438605727497888,7.711959362030029,-3.4932470321655273,-2.197944164276123,,108.3838186555935,54.6452431229433
1557947333929,,25.130363116691207,0.0,,,,,,,
1557947333969,,23.158133208097542,,,,,,,,
1557947333970,,,,,7.149304389953613,-5.789356708526611,-2.8372156620025635,,132.6132590380534,
1557947333971,,,,,,,,,129.29161510127116,
1557947333973,,,,,,,,,124.96706716789924,54.275395888674815
1557947333974,,,,1.2991349166275812,,,,,,
1557947333998,,,,,,,,1003.58837890625,,
1557947334014,,25.905984732952355,,,,,,,,
1557947334015,,,0.0,,,,,,,
1557947334022,,,,,9.217958450317383,-7.127756118774414,-0.821236252784729,,,
1557947334023,0.0,,,,,,,,114.46690807381191,
1557947334045,,,,4.072347589852581,,,,,102.26728180100952,54.3241914873484
1557947334049,,26.46883631772418,,,,,,,,
1557947334081,,,,,10.769448280334473,-4.637710094451904,1.0199611186981201,1003.58837890625,96.15742487143382,
1557947334082,,,,,11.765466690063477,-1.6281068325042725,1.6496553421020508,,90.2063083683584,
1557947334090,,25.002282266244617,0.0,,,,,,,
1557947334106,,,,4.784499516477031,,,,,85.09908905799472,54.000966298019556
1557947334129,,24.80152029203456,,,,,,,,
1557947334134,0.0,,,,,,,,,
1557947334141,,,,,14.248329162597656,-2.0040080547332764,2.98087215423584,,84.82255518906845,
1557947334164,,,,3.756794940436236,14.236357688903809,-3.9194278717041016,1.7071179151535034,,90.78759844786151,53.76967474412156
1557947334169,,23.01215835904429,,,,,,,,
1557947334189,,,,,,,,1003.589111328125,,
1557947334209,,22.08061227551791,0.0,,,,,,,
1557947334214,,,,,10.388758659362793,,,,,
1557947334215,,,,0.7803759835741284,,-5.317684173583984,-0.4668835997581482,,105.96115738717913,54.72910953751532
1557947334236,0.0,,,,,,,,,
1557947334250,,21.546416499772654,,,,,,,,
1557947334286,,,,,7.786181449890137,-3.4333901405334473,-2.2242813110351562,,,
1557947334287,,,,1.6284217022305403,,,,1003.59228515625,112.85132244829379,54.50566463414124
1557947334289,,22.73120744058074,0.0,,,,,,,
1557947334321,,,,,7.5802741050720215,,,,,
1557947334322,,,,,7.075081825256348,-2.298503875732422,0.09098244458436966,,94.67106642501233,
1557947334329,,18.830463075870828,,,,,,,,
1557947334346,0.0,,,2.81085928637951,,,,,96.95004100385711,54.806706058970796
1557947334369,,17.293833738074124,0.0,,,,,,,
1557947334396,,,,,7.348029613494873,-2.698347806930542,-1.3431881666183472,1003.59228515625,103.48480400169933,
1557947334409,,16.8505590204045,,,,,,,,
1557947334425,,,,1.7063776855760595,,,,,105.6416752887518,54.31792899090499
1557947334441,,,,,6.996070861816406,-3.2657909393310547,-1.8507744073867798,,110.79223897958838,
1557947334448,,16.292280907854764,,,,,,,,
1557947334453,,,,2.3565123920402185,,,,,,
1557947334454,0.0,,,,,,,,97.60192108843233,54.914063002119015
1557947334480,,,,,,,,1003.59716796875,,
1557947334488,,16.166100538763864,0.0,,,,,,,
1557947334501,,,,,8.456578254699707,-2.4589202404022217,-0.028731297701597214,,93.43062893965714,
1557947334502,,,,,9.3233060836792,-2.7031362056732178,-1.149251937866211,,95.68243302598364,
1557947334527,,,,1.751797025907056,,,,,94.62121970444957,54.314648789621714
1557947334529,,18.213567944768336,,,,,,,,
1557947334568,,18.148030754102436,0.0,,,,,,,
1557947334576,0.0,,,1.5602221861360273,8.58108139038086,-2.389486312866211,-1.0343266725540161,,93.92918493774391,53.78948885171105
1557947334582,,,,,,,,1003.610595703125,,
1557947334609,,19.402204939261885,,,,,,,,
1557947334623,,,,,10.032011032104492,-4.649681568145752,,,,
1557947334624,,,,,,-6.047938346862793,0.1364736706018448,,99.69499840863688,
1557947334647,,,,5.404538275011516,,,,,100.89373758910915,54.10083737191742
1557947334649,,21.789068320739972,0.0,,,,,,,
1557947334688,,25.37287837452809,,,,,,,,
1557947334693,,,,,10.398335456848145,-6.88114595413208,,,,
1557947334694,0.0,,,5.521930494391223,,,-1.2905141115188599,1003.610595703125,109.34635623418836,53.05214690026442
1557947334730,,27.53021693238693,,,,,,,,
1557947334741,,,,,8.988107681274414,-11.152531623840332,-2.6504621505737305,,128.44781353120777,
1557947334760,,,,2.6019951171418687,,,,,110.90454094992174,53.23061652135199
1557947334769,,26.801267854632606,0.0,,,,,,,
1557947334783,,,,,,,,1003.61474609375,,
1557947334803,0.0,,,,10.913105010986328,-6.8021345138549805,-2.0255565643310547,,105.56818245328247,
1557947334809,,26.97673064639926,,,,,,,,
1557947334826,,,,1.0437363218222153,,,,,110.63012443963811,53.71159543963503
1557947334849,,25.211395668261176,0.0,,,,,,,
1557947334876,,,,4.591122660918313,6.715940952301025,-4.7262983322143555,-1.2857255935668945,,110.58050994550715,53.15569688262857
1557947334880,,,,,,,,1003.62353515625,,
1557947334889,,22.16671475105622,,,,,,,,
1557947334915,0.0,,,,,,,,,
1557947334921,,,,,4.113364219665527,-1.752609133720398,-1.30009126663208,,101.96059264689762,
1557947334929,,18.468145171719932,0.0,,,,,,,
1557947334936,,,,1.7657503741827132,,,,,112.55653831390521,53.52934710939137
1557947334969,,19.555317692068673,,,,,,,,
1557947334981,,,,,6.7757978439331055,-4.484476566314697,-2.6145482063293457,1003.62890625,115.61872385468618,
1557947334982,,,,,5.6576714515686035,-3.1795969009399414,-3.785348415374756,,120.67391078395269,
1557947334996,,,,3.464048343779219,,,,,120.61821742146043,52.5779755589386
1557947335012,,18.785921322868333,,,,,,,,
1557947335018,0.0,,,,,,,,,
1557947335043,,,,,6.644112586975098,-4.453351020812988,-2.0231621265411377,,113.19193715201314,
1557947335049,,19.601681146736528,0.0,,,,,,,
1557947335052,,,,1.2264252604103352,,,,,,
1557947335053,,,,,,,,,103.46593901921176,52.51823400856415
1557947335089,,17.66034953260492,,,,,,,,
1557947335092,,,,,,,,1003.6318359375,,
1557947335101,,,,,6.845231533050537,-4.3264546394348145,-2.231464147567749,,110.2011202578696,
1557947335118,,,,2.9763194708344503,,,,,130.18631524102946,52.99664445210356
1557947335119,0.0,,,,,,,,,
1557947335129,,16.234426891542466,0.0,,,,,,,
1557947335163,,,,,8.193208694458008,-7.099024772644043,-2.348783493041992,,117.54159969096321,
1557947335169,,15.602239222803803,,,,,,,,
1557947335172,,,,4.07105492906613,,,,,98.15270071291297,54.24265457679141
1557947335188,,,,,,,,1003.6376953125,,
1557947335209,,15.527454480480039,0.0,,,,,,,
1557947335221,,,,,10.297776222229004,-6.138920783996582,1.0439038276672363,,95.71151597146957,
1557947335231,0.0,,,,,,,,,
1557947335232,,,,3.5562253874076206,,,,,89.71797033326999,52.89298420727304
1557947335249,,17.315494812449902,,,,,,,,
1557947335282,,,,,11.849266052246094,-2.815667152404785,1.1684061288833618,1003.630615234375,84.76874695878706,
1557947335289,,18.234357820280916,,,,,,,,
1557947335305,,,,5.079256559624285,,,,,88.65769957784141,52.93057572176204
1557947335330,,16.422704341800443,0.0,,,,,,,
1557947335341,,,,,15.24195384979248,-5.561900615692139,-0.4716721475124359,,93.24792820954849,
1557947335351,,,,,13.134991645812988,-5.066285610198975,-1.1468576192855835,,95.50011478646849,
1557947335352,0.0,,,,,,,,,
1557947335353,,,,1.1279310086065044,,,,,99.46784680740973,53.30631073838302
1557947335369,,15.93105148675036,,,,,,,,
1557947335393,,,,,,,,1003.633544921875,,
1557947335401,,,,,6.754249095916748,-3.656057596206665,-1.891477108001709,,,
1557947335402,,,,,,,,,108.03779444205148,
1557947335409,,20.70372986552546,0.0,,,,,,,
1557947335414,,,,,,,,,100.15954006465694,
1557947335449,,16.962632492638384,,,,,,,,
1557947335454,0.0,,,,,,,,,
1557947335476,,,,3.1176332236352398,7.987300872802734,-2.889889717102051,-0.6440598964691162,,92.11794171326159,52.10885003441236
1557947335480,,,,,,,,1003.64013671875,,
1557947335489,,18.676585254131744,0.0,,,,,,,
1557947335523,,,,,6.217931747436523,-1.9656996726989746,-0.37590113282203674,,87.87728216327577,
1557947335529,,14.818876706271027,,,,,,,,
1557947335569,,18.77317139593339,,,,,,,,
1557947335571,,,,2.478016615971237,,,,,95.11082132453441,52.01609043605363
1557947335573,0.0,,,,,,,,,
1557947335609,,16.516284858533655,0.0,3.6756969284131547,8.004060745239258,-2.794118642807007,-2.5594797134399414,1003.64990234375,90.5602829220943,51.859440799850944
1557947335649,,20.760576784214333,,,,,,,,
1557947335670,,,,2.1466473143556266,8.533195495605469,-0.5602602958679199,0.028731297701597214,,75.29095107023477,51.403089707485776
1557947335689,,24.593668413055475,0.0,,,,,,,
1557947335698,0.0,,,,,,,1003.6494140625,,
1557947335702,,,,,8.78219985961914,-2.3990633487701416,-0.5482889413833618,,82.41752263890186,
1557947335703,,,,,,,,,87.97769277426414,
1557947335726,,,,,,,,,87.96306933925109,
1557947335727,,,,3.787799302163038,,,,,,50.36541435011428
