timestamp,AmbientLightSensor,DecibelSource,PitchSensor,LinearAccelerometerSensor,AccX,AccY,AccZ,BarometerSensor,CompassSensor,MagneticRotationSensor
1557947613493,,27.464213288603318,,,,,,,,
1557947613503,,,54.1552734375,,,,,,,
1557947613533,,28.110420035691806,,,,,,,,
1557947613534,,,54.1552734375,,,,,,,
1557947613573,,29.05191055011224,,,,,,,,
1557947613574,,,54.1552734375,,,,,,,
1557947613609,,,,,-1.335964560508728,2.389413356781006,,,292.0516115705557,
1557947613610,2.0,,,1.3219000396882032,,,8.967482566833496,999.5199584960938,291.3867404661791,28.509998489331007
1557947613613,,27.837830243942648,,,,,,,,
1557947613621,,,,1.8342296692240232,-2.212242364883423,2.8443117141723633,8.632294654846191,,301.4047974878903,29.6772646212617
1557947613653,,28.053411825418802,,,,,,,,
1557947613654,,,0.0,,,,,,,
1557947613684,,,,2.110977920156539,-2.073378562927246,3.203441858291626,8.287528991699219,,306.18887371843147,29.6772646212617
1557947613694,,28.90850489627583,,,,,,,,
1557947613741,2.0,,,,,,,,,
1557947613754,,37.8476119420679,,,,,,,,
1557947613759,,,,,-1.6089035272598267,2.494758129119873,,,306.18887371843147,29.6772646212617
1557947613761,,,,2.2184525411299862,,,9.254786491394043,999.5,,
1557947613764,,,186.33466448102678,,,,,,,
1557947613794,,35.20197743814122,186.33466448102678,,,,,,,
1557947613810,,,,,-1.1875240802764893,,,,,
1557947613826,,,,2.657001613416889,,1.4891934394836426,11.998541831970215,,279.011038746763,30.148632713174212
1557947613833,,33.87408551918065,,,,,,,,
1557947613834,,,186.33466448102678,,,,,,,
1557947613842,,,98.92578125,,,,,,,
1557947613862,2.0,,,,,,,,,
1557947613873,,33.56626900686586,,,,,,,,
1557947613874,,,98.92578125,,,,,,,
1557947613876,,,,,-0.1628057211637497,1.9632453918457031,,,281.2849794761895,29.75550458872222
1557947613877,,,,1.7655083946951065,,,11.309011459350586,,,
1557947613914,,32.20912107139675,98.92578125,,,,,,,
1557947613924,,,52.0703125,,,,,,,
1557947613943,,,,3.2897561399760704,-0.9672574996948242,2.0638017654418945,,999.5099487304688,281.5886701772557,29.75550458872222
1557947613944,,,,,,,12.779051780700684,,,
1557947613974,,32.47085598570356,52.0703125,,,,,,,
1557947613977,2.0,,,,,,,,,
1557947614009,,,,,0.06224924325942993,2.1308395862579346,,,282.5124874134458,29.76491312592466
1557947614010,,,,1.068132951861983,,,10.466252326965332,,,
1557947614013,,30.763718843896672,,,,,,,,
1557947614014,,,52.0703125,,,,,,,
1557947614053,,31.111119242903506,,,,,,,,
1557947614065,,,,1.2961272416435266,0.3256114423274994,1.9488801956176758,10.753557205200195,,279.36476741368875,29.76491312592466
1557947614093,,28.95860038915722,,,,,,,,
1557947614094,,,0.0,,,,,,,
1557947614096,2.0,,,,,,,,,
1557947614127,,,,1.3140667238292327,0.14844051003456116,2.5905263423919678,8.99621295928955,999.47998046875,279.77718789615244,29.27439291261049
1557947614133,,29.432855314867297,,,,,,,,
1557947614173,,29.960585897711063,,,,,,,,
1557947614194,,,,,0.4118026793003082,,,,,
1557947614195,,,,0.7246420305404885,,1.9249382019042969,9.139864921569824,,281.3141238933779,29.054089090165444
1557947614210,2.0,,,,,,,,,
1557947614234,,28.65050585626509,0.0,,,,,,,
1557947614265,,,,0.3151009089193791,0.023942016065120697,1.7094600200653076,9.570821762084961,,278.8766889257888,29.054089090165444
1557947614274,,28.66810503803198,,,,,,,,
1557947614314,,28.727873384452856,0.0,,,,,,,
1557947614328,,,,0.37515134538894557,0.4357447028160095,1.8531121015548706,,999.489990234375,278.22635246396607,29.21198397071684
1557947614329,,,,,,,8.852560997009277,,,
1557947614330,2.0,,,,,,,,,
1557947614353,,30.112639700488412,,,,,,,,
1557947614379,,,,,0.10055647045373917,1.6855180263519287,,,277.84574700265625,29.21198397071684
1557947614382,,,,0.26208191911187456,,,9.585186958312988,,,
1557947614394,,28.84231722560459,0.0,,,,,,,
1557947614434,,28.864639922083207,,,,,,,,
1557947614445,,,,,-0.4644751250743866,1.7621324062347412,,,279.4094710018065,29.247051253563672
1557947614446,2.0,,,0.5443993253999408,,,9.824606895446777,,,
1557947614494,,32.483906958569605,0.0,,,,,,,
1557947614513,,,,0.48709193537251655,-0.24420857429504395,1.8914192914962769,9.297882080078125,999.4599609375,277.91977942307005,28.908649118036067
1557947614534,,32.16038279280933,,,,,,,,
1557947614563,2.0,,,,,,,,,
1557947614573,,30.841972591678864,,,,,,,,
1557947614581,,,,1.244692980739624,-0.569819986820221,2.4899697303771973,10.341753959655762,,283.51849914610784,28.68780185997748
1557947614586,,,64.4033203125,,,,,,,
1557947614614,,31.769707190931555,64.4033203125,,,,,,,
1557947614633,,,,,-1.2832920551300049,,,,,
1557947614634,,,,1.9989100705022835,,2.3367409706115723,10.60032844543457,,284.25020365151295,28.73221146221856
1557947614654,,33.83408304602328,64.4033203125,,,,,,,
1557947614669,2.0,,,,,,,,,
1557947614707,,,,,-1.5131354331970215,0.828393816947937,,,283.68774440355156,
1557947614708,,,,2.0718814303153064,,,12.012907028198242,999.469970703125,,28.4355421146012
1557947614713,,33.70626220571811,,,,,,,,
1557947614753,,38.19854465689363,,,,,,,,
1557947614760,,,,1.8731543039773282,-1.015141487121582,2.2218191623687744,10.360907554626465,,282.185232559743,27.98731973103597
1557947614768,,,100.107421875,,,,,,,
1557947614793,,35.41020481887924,,,,,,,,
1557947614794,,,100.107421875,,,,,,,
1557947614808,2.0,,,,,,,,,
1557947614827,,,,,-0.08619125932455063,1.3982137441635132,,,272.1919486341515,28.030163508253743
1557947614828,,,,0.763703991929246,,,10.289081573486328,,,
1557947614833,,34.16264045800825,,,,,,,,
1557947614834,,,100.107421875,,,,,,,
1557947614873,,31.973423085724406,,,,,,,,
1557947614874,,,100.107421875,,,,,,,
1557947614886,,,91.726318359375,,,,,,,
1557947614900,,,,0.6975239080344581,-0.004788403399288654,2.1356279850006104,10.164583206176758,999.449951171875,270.51805368368895,27.744009370014695
1557947614913,,31.577977370041424,,,,,,,,
1557947614914,,,91.726318359375,,,,,,,
1557947614944,2.0,,,,,,,,,
1557947614945,,,,,-0.2346317619085312,1.3407529592514038,,,,
1557947614946,,,,0.8770652648321129,,,9.010578155517578,,272.1244868557193,28.425693180083577
1557947614973,,30.525524718528768,,,,,,,,
1557947614974,,,91.726318359375,,,,,,,
1557947615013,,31.03985707492981,,,,,,,,
1557947615031,,,,,-0.8188169598579407,,,,,
1557947615032,,,,1.4321812627607848,,0.5793967843055725,10.451887130737305,,261.38365921603736,28.425693180083577
1557947615054,,30.139803098924915,0.0,,,,,,,
1557947615077,,,,,-0.8188169598579407,,,,,
1557947615078,3.0,,,1.581123901887938,,2.892195701599121,8.943540573120117,999.47998046875,261.38365921603736,28.425693180083577
1557947615094,,31.153667419474054,,,,,,,,
1557947615134,,30.077726631863655,0.0,,,,,,,
1557947615144,,,,1.3490420969678742,-0.8619126081466675,2.0446481704711914,9.331400871276855,,281.8474182335833,28.425693180083577
1557947615174,,32.85933824954216,,,,,,,,
1557947615214,,,,1.8905918339113794,-1.0007762908935547,2.9688100814819336,9.08719253540039,,294.6259440196793,28.539271441639077
1557947615215,3.0,,,,,,,,,
1557947615233,,33.533875200075805,,,,,,,,
1557947615245,,,99.84537760416666,,,,,,,
1557947615274,,33.23031651816754,99.84537760416666,,,,,,,
1557947615278,,,,,-0.7182605266571045,1.8195933103561401,,,,
1557947615279,,,,1.8089451623536938,,,10.523713111877441,999.4599609375,296.21976183231266,28.539271441639077
1557947615314,,34.6253868402563,99.84537760416666,,,,,,,
1557947615323,,,99.84375,,,,,,,
1557947615345,,,,,-0.7948749661445618,,,,,
1557947615346,3.0,,,3.64040652425869,,1.0438719987869263,13.008894920349121,,264.4801937781544,28.22233192801325
1557947615354,,34.31792485301309,99.84375,,,,,,,
1557947615391,,,,2.1112721141969235,-0.3974374830722809,1.3982137441635132,11.668142318725586,,269.29249918053523,27.919348558952784
1557947615393,,32.238348984126034,,,,,,,,
1557947615394,,,99.84375,,,,,,,
1557947615404,,,98.5791015625,,,,,,,
1557947615453,,31.686812856415653,,,,,,,,
1557947615454,,,98.5791015625,,,,,,,
1557947615459,,,,,0.790086567401886,,,,,
1557947615460,,,,2.1244686808837425,,1.5275006294250488,10.145429611206055,999.5099487304688,269.23241400640666,27.919348558952784
1557947615480,3.0,,,,,,,,,
1557947615493,,31.81495822678268,,,,,,,,
1557947615494,,,98.5791015625,,,,,,,
1557947615514,,,,,0.4213795065879822,0.7805097699165344,,,263.0929823577248,27.711730797002993
1557947615515,,,,2.0150782117029067,,,11.601104736328125,,,
1557947615533,,30.48481456684957,,,,,,,,
1557947615573,,35.37682897747303,,,,,,,,
1557947615575,,,,,0.6560112833976746,1.5945383310317993,,,273.81937097750125,27.711730797002993
1557947615576,,,,0.49079291756407895,,,9.455899238586426,,,
1557947615590,3.0,,,,,,,,,
1557947615613,,32.45624465745389,,,,,,,,
1557947615623,,,100.0146484375,,,,,,,
1557947615624,,,100.0146484375,,,,,,,
1557947615638,,,,0.3680616079388621,0.5410895943641663,0.9864110946655273,9.700108528137207,999.47998046875,274.17096179521684,28.165404739627547
1557947615653,,31.00704144407004,,,,,,,,
1557947615654,,,100.0146484375,,,,,,,
1557947615706,,,,,-0.08140286058187485,1.9057846069335938,,,,
1557947615707,3.0,,,0.6649222922634769,,,9.949105262756348,,278.66657864654087,28.165404739627547
1557947615714,,30.720253682958866,100.0146484375,,,,,,,
1557947615754,,30.054593670445016,,,,,,,,
1557947615764,,,,0.3431717821272285,0.49320554733276367,1.7908629179000854,9.503783226013184,,276.67048318236135,28.165404739627547
1557947615793,,29.568812103530625,,,,,,,,
1557947615794,,,0.0,,,,,,,
1557947615829,3.0,,,0.3706819357408567,0.24420857429504395,1.6855180263519287,10.284293174743652,999.5099487304688,276.67048318236135,28.165404739627547
1557947615833,,28.87679118674198,,,,,,,,
1557947615874,,29.349978971816235,0.0,,,,,,,
1557947615893,,,,1.204123540895826,0.7326257228851318,1.824381709098816,8.555679321289063,,278.3383607361651,28.52945854052936
1557947615914,,29.961745289537237,,,,,,,,
1557947615944,3.0,,,,,,,,,
1557947615965,,,,,0.4836287498474121,1.6855180263519287,,,277.1142337425479,28.52945854052936
1557947615966,,,,0.8137525294157643,,,8.862137794494629,,,
1557947615974,,32.186215164580496,0.0,,,,,,,
1557947616014,,31.64811510574397,,,,,,,,
1557947616027,,,,,0.3687070608139038,2.7485435009002686,,,,
1557947616028,4.0,,,0.7748319597495344,,,8.129511833190918,999.5399780273438,277.1142337425479,28.52945854052936
1557947616054,,31.002403737018575,0.0,,,,,,,
1557947616069,4.0,,,,,,,,,
1557947616085,,,,0.6555408097169433,-0.004788403399288654,1.8579005002975464,9.39365005493164,,279.58787554292724,28.589858423284774
1557947616093,,31.58315993958498,,,,,,,,
1557947616133,,31.11856831712489,,,,,,,,
1557947616134,,,0.0,,,,,,,
1557947616153,,,,,-0.17238251864910126,2.0685901641845703,,,280.6670727525459,
1557947616154,,,,0.873237060040373,,,9.364919662475586,,278.65718030624294,28.64437123639817
1557947616193,,35.237572346456744,,,,,,,,
1557947616194,4.0,,,,,,,,,
1557947616211,,,,,-0.727837324142456,1.316810965538025,,,,
1557947616212,,,,3.408580577684123,,,12.649765014648438,999.5,262.2746232423197,28.816835065569897
1557947616233,,34.04773245310125,,,,,,,,
1557947616273,,32.90303410268302,,,,,,,,
1557947616277,,,,,-0.9241618514060974,2.3032219409942627,,,280.90207907131855,
1557947616278,,,,2.055846608952384,,,10.81580638885498,,,28.876460724581044
1557947616282,,,100.482177734375,,,,,,,
1557947616313,,34.04039259538526,,,,,,,,
1557947616314,,,100.482177734375,,,,,,,
1557947616320,4.0,,,,,,,,,
1557947616339,,,,2.6870044872443803,-1.259350061416626,2.580949544906616,,,281.08075682000606,28.72925324056047
1557947616340,,,,,,,11.567585945129395,,,
1557947616353,,34.46958853253743,,,,,,,,
1557947616354,,,100.482177734375,,,,,,,
1557947616365,,,100.068359375,,,,,,,
1557947616393,,32.47012344773593,,,,,,,,
1557947616394,,,100.068359375,,,,,,,
1557947616407,,,,,-1.4939818382263184,,,,,
1557947616408,,,,2.7041766816489137,,2.2649147510528564,12.659341812133789,999.5399780273438,281.58509798831983,28.72925324056047
1557947616449,4.0,,,,,,,,,
1557947616454,,32.07460865118214,100.068359375,,,,,,,
1557947616463,,,100.7080078125,,,,,,,
1557947616466,,,,1.645606335144014,-0.9672574996948242,2.389413356781006,9.949105262756348,,284.15350866343306,27.666043819479107
1557947616494,,30.60291679559263,100.7080078125,,,,,,,
1557947616534,,29.571331909161582,100.7080078125,1.1060420191027713,-0.3495534360408783,1.9345149993896484,9.072827339172363,,276.12942291706963,28.125788526543896
1557947616574,,29.900417854842832,,,,,,,,
1557947616579,4.0,,,,,,,,,
1557947616596,,,,2.018259500255077,0.09576806426048279,1.7477672100067139,7.837419033050537,999.5299682617188,276.7325491113493,28.125788526543896
1557947616614,,29.14371258395834,0.0,,,,,,,
1557947616654,,30.300422035043017,,,,,,,,
1557947616662,,,,,0.2346317619085312,,,,,
1557947616663,,,,1.715886313960731,,1.1348515748977661,8.0145902633667,,265.38257105053975,28.494561940762033
1557947616703,4.0,,,,,,,,,
1557947616714,,34.051553465843206,0.0,,,,,,,
1557947616717,,,,,-0.13407529890537262,1.1013327836990356,,,261.7942150568577,28.864165339412942
1557947616718,,,,0.6294343756707174,,,9.384073257446289,,,
1557947616754,,36.3543143606101,,,,,,,,
1557947616783,,,,0.7789636726601101,0.7422025203704834,1.2258312702178955,9.1446533203125,999.5299682617188,262.061630623242,28.864165339412942
1557947616794,,33.499000030750246,,,,,,,,
1557947616803,,,98.2421875,,,,,,,
1557947616829,4.0,,,,,,,,,
1557947616834,,31.77378360055283,98.2421875,,,,,,,
1557947616843,,,,,-0.727837324142456,,,,,
1557947616844,,,,4.379326125610323,,0.047884032130241394,13.684060096740723,,242.79088025745466,28.864165339412942
1557947616873,,33.16554562709185,,,,,,,,
1557947616874,,,98.2421875,,,,,,,
1557947616883,,,51.7822265625,,,,,,,
1557947616902,,,,,-0.014365210197865963,,,,,
1557947616903,,,,2.73167224823725,,2.078166961669922,12.328941345214844,,270.01423160975213,33.10377742643331
1557947616935,,33.980729909952416,51.7822265625,,,,,,,
1557947616943,4.0,,,,,,,,,
1557947616960,,,,,-0.5363011956214905,-0.06224924325942993,,,239.05337342286703,
1557947616961,,,,4.555719222770292,,,14.115015983581543,999.5799560546875,238.80678993345123,34.810632855186654
1557947616973,,33.408169183916876,51.7822265625,,,,,,,
1557947617013,,32.48765631472858,,,,,,,,
1557947617014,,,51.7822265625,,,,,,,
1557947617027,,,,1.3404352422835646,0.49799394607543945,1.8483237028121948,9.245209693908691,,277.83623937933163,35.00671380063891
1557947617053,,31.533150429430744,,,,,,,,
1557947617061,4.0,,,,,,,,,
1557947617093,,31.07636349987409,,,0.507570743560791,0.7661445140838623,,,259.8836745422217,35.00671380063891
1557947617094,,,,1.305299900716516,,,8.526948928833008,,,
1557947617105,,,197.626953125,,,,,,,
1557947617133,,29.721717294178895,,,,,,,,
1557947617134,,,197.626953125,,,,,,,
1557947617160,,,,,0.33997663855552673,,,,,
1557947617161,,,,1.3227329977698759,,1.0247182846069336,7.736862659454346,999.5700073242188,258.389755076389,32.242519046529075
1557947617178,4.0,,,,,,,,,
1557947617193,,31.530284225622612,,,,,,,,
1557947617194,,,197.626953125,,,,,,,
1557947617217,,,,,-0.14365209639072418,0.7805097699165344,,,256.4422359175866,
1557947617218,,,,1.4577504037468223,,,8.35456657409668,,254.96583588697501,29.78623861987013
1557947617233,,30.25435801278889,,,,,,,,
1557947617273,,32.169863042923275,,,,,,,,
1557947617274,,,0.0,,,,,,,
1557947617281,,,,1.9076709766680306,0.5123591423034668,1.2306196689605713,7.875726699829102,,266.6523100474343,29.78623861987013
1557947617295,4.0,,,,,,,,,
1557947617313,,33.363931210755695,,,,,,,,
1557947617344,5.0,,,1.9347981102671374,-0.7709329724311829,-0.5363011956214905,13.688848495483398,999.5599975585938,266.6523100474343,29.78623861987013
1557947617354,,36.28186744459319,,,,,,,,
1557947617362,,,69.775390625,,,,,,,
1557947617413,,35.724226088977986,69.775390625,,,,,,,
1557947617419,,,,2.754010657096638,-0.4118026793003082,2.499546527862549,12.051214218139648,,276.7789534165703,29.90936323489898
1557947617420,5.0,,,,,,,,,
1557947617453,,34.279998156399955,69.775390625,,,,,,,
1557947617482,,,,3.767850732507334,-0.26815059781074524,0.1149216815829277,13.406332015991211,,237.27436869126717,29.350809345101442
1557947617493,,37.398437348890134,,,,,,,,
1557947617534,,34.88842101884819,,,,,,,,
1557947617542,,,200.7373046875,,,,,,,
1557947617547,5.0,,,2.009346105388575,-0.14844051003456116,2.3989901542663574,9.364919662475586,999.6399536132813,282.7634832050654,29.350809345101442
1557947617573,,33.58333679802951,,,,,,,,
1557947617574,,,200.7373046875,,,,,,,
1557947617598,,,,,-0.2585737705230713,-1.2018892765045166,,,225.8764905138084,
1557947617599,,,,2.2872088220933864,,,11.23718547821045,,,29.252521432950733
1557947617613,,32.726108347648726,,,,,,,,
1557947617614,,,200.7373046875,,,,,,,
1557947617662,,,,,-1.173158884048462,2.9735984802246094,,,,
1557947617663,5.0,,,4.235655418580597,,,6.716932773590088,,331.11768790586024,28.507193342548497
1557947617673,,33.65950366022377,200.7373046875,,,,,,,
1557947617713,,33.612765884215946,,,,,,,,
1557947617729,,,,,-0.7038952708244324,,,,,
1557947617730,,,,4.2695500128247375,,0.45010992884635925,9.317035675048828,999.5999755859375,332.438064217714,28.495965769657534
1557947617753,,33.192687590763754,,,,,,,,
1557947617773,,,67.31387183779762,,,,,,,
1557947617783,,,,,-0.7757213711738586,,,,,
1557947617784,,,,2.0344518222162318,,1.5179238319396973,8.32104778289795,,288.5036629760034,28.02623884864119
1557947617788,5.0,,,,,,,,,
1557947617793,,34.865827740303466,,,,,,,,
1557947617794,,,67.31387183779762,,,,,,,
1557947617833,,35.93659820402615,67.31387183779762,,,,,,,
1557947617847,,,,0.6506696680952767,-0.2968810200691223,0.31603461503982544,9.489418029785156,,257.914128023346,27.960509002037025
1557947617874,,34.03769207309786,,,,,,,,
1557947617914,5.0,,,0.8042946754784914,-0.8044517636299133,-0.009576806798577309,12.252326965332031,999.6499633789063,263.1708533444521,27.960509002037025
1557947617934,,32.34218223483928,,,,,,,,
1557947617946,,,101.96980794270834,,,,,,,
1557947617973,,32.600409375849246,,,,,,,,
1557947617974,,,101.96980794270834,,,,,,,
1557947617981,,,,2.849831251536035,-1.0965443849563599,1.37906014919281,12.18528938293457,,279.36876307435324,27.960509002037025
1557947618013,,34.375176185285035,,,,,,,,
1557947618014,,,101.96980794270834,,,,,,,
1557947618032,,,,2.405031961081949,-0.4165911078453064,0.6607996821403503,12.146982192993164,,266.9108941792218,27.30311379656759
1557947618035,5.0,,,,,,,,,
1557947618053,,33.00474331509673,,,,,,,,
1557947618094,,34.166687591334814,,,,,,,,
1557947618100,,,,2.4280270118530574,-0.7086837291717529,-0.019153613597154617,12.146982192993164,999.6499633789063,256.01369618868165,27.26793030768718
1557947618105,,,237.23046875,,,,,,,
1557947618153,,30.507031169172308,,,,,,,,
1557947618154,,,237.23046875,,,,,,,
1557947618163,5.0,,,1.2024735507713114,0.23942017555236816,0.9481038451194763,9.029731750488281,,277.7228309183527,26.782644058453638
1557947618193,,30.618546137217358,,,,,,,,
1557947618194,,,237.23046875,,,,,,,
1557947618226,,,,1.1950059884212594,0.047884032130241394,0.871489405632019,8.89565658569336,,279.3093472587633,26.768265216458108
1557947618233,,31.03082682618169,,,,,,,,
1557947618273,,31.183899508337582,,,,,,,,
1557947618274,,,0.0,,,,,,,
1557947618290,6.0,,,2.6932010064650513,-0.028730420395731926,0.08619125932455063,7.114370346069336,999.5999755859375,270.65107161777496,26.1713593828567
1557947618313,,30.822984977616027,,,,,,,,
1557947618350,,,,,-1.0438719987869263,,,,,
1557947618351,,,,0.9777552835238329,,0.8092401623725891,8.910021781921387,,292.8436471368995,26.91579490704546
1557947618354,,32.58463673883516,,,,,,,,
1557947618413,,32.93967047281058,,,,,,,,
1557947618414,,,0.0,,,,,,,
1557947618417,,,,2.8537963478445167,-1.8052281141281128,2.183511972427368,,,334.9600313140184,26.91579490704546
1557947618418,6.0,,,,,,7.5884222984313965,,,
1557947618453,,34.14449913126535,,,,,,,,
1557947618484,,,,,-3.471592426300049,0.7709329724311829,,,291.9758716028494,
1557947618485,,,,3.33936071639493,,,12.295422554016113,999.6499633789063,,27.382659035594116
1557947618493,,33.320630243286885,,,,,,,,
1557947618507,,,193.537109375,,,,,,,
1557947618533,,34.31462189736416,,,,,,,,
1557947618534,,,193.537109375,,,,,,,
1557947618536,6.0,,,4.725096823694318,-4.663905143737793,2.360682964324951,12.673707008361816,,356.36297250517924,27.398175411575238
1557947618573,,33.348298469540964,,,,,,,,
1557947618574,,,193.537109375,,,,,,,
1557947618610,,,,2.152297225421623,-2.7533318996429443,0.9241618514060974,,,338.83967609278136,27.024804065975108
1557947618611,,,,,,,7.904457092285156,,,
1557947618614,,32.237274824017625,,,,,,,,
1557947618647,6.0,,,,,,,,,
1557947618672,,,,1.7795262612840557,-4.458003520965576,1.5275006294250488,11.294646263122559,999.6499633789063,347.8796730772351,27.024804065975108
1557947618674,,32.05032427326247,,,,,,,,
1557947618688,,,117.82305036272321,,,,,,,
1557947618713,,30.957775626091486,,,,,,,,
1557947618714,,,117.82305036272321,,,,,,,
1557947618736,,,,4.0612878017949905,-2.6240451335906982,1.192312479019165,5.500678539276123,,18.537693482926556,28.591782979544263
1557947618754,,32.23650180482037,117.82305036272321,,,,,,,
1557947618769,6.0,,,,,,,,,
1557947618789,,,,1.356220575532041,-4.458003520965576,0.4596867263317108,9.81024169921875,,328.6555652195161,30.867784157762255
1557947618793,,32.04314325530878,,,,,,,,
1557947618833,,32.309864006289914,,,,,,,,
1557947618849,,,142.468508765811,,,,,,,
1557947618860,,,,,-6.689399719238281,1.6376339197158813,,,292.55934051269776,31.409713246409886
1557947618861,,,,1.0962765531031797,,,12.02727222442627,999.6900024414063,,
1557947618887,6.0,,,,,,,,,
1557947618893,,38.72954538493736,142.468508765811,,,,,,,
1557947618920,,,,1.5679295617163898,-3.907337188720703,1.3982137441635132,8.938752174377441,,308.06294102289957,33.14830258822313
1557947618933,,51.68943849621531,142.468508765811,,,,,,,
1557947618973,,37.38162292440605,,,,,,,,
1557947618987,,,,,-4.290409564971924,0.5267243981361389,,,283.1890996130056,31.30319492651789
1557947618988,,,,1.8182302197602922,,,10.614693641662598,,,
1557947619004,6.0,,,,,,,,,
1557947619013,,36.71242576568651,,,,,,,,
1557947619053,,35.21616100416526,,,,,,,,
1557947619054,,,,1.7860109382542204,-5.559336185455322,-0.7852981686592102,14.823699951171875,999.6399536132813,280.42510647100903,30.66757294056025
1557947619067,,,129.234375,,,,,,,
1557947619093,,42.09992791126289,,,,,,,,
1557947619094,,,129.234375,,,,,,,
1557947619115,,,,3.902266034792967,-3.021482467651367,-2.346317768096924,12.285845756530762,,251.10970232688254,31.353788446897976
1557947619140,6.0,,,,,,,,,
1557947619153,,32.820127170298264,,,,,,,,
1557947619154,,,129.234375,,,,,,,
1557947619170,,,118.06089896896258,,,,,,,
1557947619179,,,,,-2.9927520751953125,,,,,
1557947619180,,,,1.2785725413939435,,0.9816226959228516,8.426392555236816,,283.9859504627143,32.96619506771641
1557947619197,,33.289378294644806,118.06089896896258,,,,,,,
1557947619233,,36.44763347695736,118.06089896896258,,,,,,,
1557947619242,,,,1.3612842525379796,-3.0119056701660156,0.10055647045373917,10.681731224060059,999.6399536132813,279.6220401491556,34.258430697875674
1557947619267,6.0,,,,,,,,,
1557947619273,,32.8017558492085,,,,,,,,
1557947619306,,,,,-1.3311761617660522,-1.1779472827911377,,,258.10955339587844,
1557947619307,,,,2.1808325381697227,,,8.072051048278809,,,34.702162677281606
1557947619313,,34.42545336179452,,,,,,,,
1557947619325,,,516.015625,,,,,,,
1557947619353,,39.33082822060852,,,,,,,,
1557947619354,,,516.015625,,,,,,,
1557947619356,,,,3.028380303894253,-3.5960910320281982,-0.8379706144332886,12.247538566589355,,262.0846688513125,35.41087400593309
1557947619390,6.0,,,,,,,,,
1557947619413,,30.421877522318937,,,,,,,,
1557947619414,,,516.015625,,,,,,,
1557947619423,,,,,-2.5234885215759277,,,,,
1557947619424,,,,3.0392225365558514,,-0.20111294090747833,12.046425819396973,999.6599731445313,263.02552740948175,36.06508141546283
1557947619454,,31.323214050320615,,,,,,,,
1557947619489,,,,,-3.6535518169403076,,,,,
1557947619490,,,,1.9353102338233417,,0.009576806798577309,11.093533515930176,,269.7457710244248,36.95686723544697
1557947619493,,31.61545022272659,,,,,,,,
1557947619494,,,0.0,,,,,,,
1557947619507,6.0,,,,,,,,,
1557947619533,,31.723365230943582,,,,,,,,
1557947619556,,,,,-2.2361843585968018,,,,,
1557947619557,,,,0.8341384137945976,,1.1204863786697388,10.08318042755127,,278.3858305508967,38.00960566331446
1557947619574,,31.438405217088423,0.0,,,,,,,
1557947619606,,,,,-1.599326729774475,,,,,
1557947619607,,,,0.9078974383697355,,1.3215993642807007,8.148665428161621,999.699951171875,270.5087714566069,38.13253366310169
1557947619624,6.0,,,,,,,,,
1557947619633,,34.87738298779595,,,,,,,,
1557947619673,,35.07752174881231,,,,,,,,
1557947619674,,,,,,,,,260.593611234742,38.21164901429731
1557947619675,,,,2.3165017634186844,0.16759411990642548,0.8188169598579407,8.766369819641113,,,
1557947619683,,,99.666748046875,,,,,,,
1557947619713,,35.03078258276338,99.666748046875,,,,,,,
1557947619741,6.0,,,5.381878200109645,2.0446481704711914,2.0590133666992188,3.599682331085205,,263.54295522024523,37.394251576470374
1557947619753,,33.73159884154092,99.666748046875,,,,,,,
1557947619793,,33.161372824629176,,,,,,,,
1557947619794,,,99.666748046875,,,,,,,
1557947619808,4.0,,,5.278181098563076,1.7812861204147339,-1.3120225667953491,6.429628849029541,999.6399536132813,247.09844151036077,36.82567179598643
1557947619833,,33.44366787613504,,,,,,,,
1557947619858,,,,,4.663905143737793,-0.8858546018600464,,,231.69426806390686,
1557947619859,,,,5.243833644413522,,,10.858901977539063,,,36.143740820978365
1557947619862,4.0,,,,,,,,,
1557947619893,,30.76441695430149,,,,,,,,
1557947619904,,,66.73893229166666,,,,,,,
1557947619925,,,,,9.074024200439453,2.0590133666992188,,,227.14481566154473,
1557947619926,,,,1.7402582819845298,,,5.0697221755981445,,221.78737920112678,36.4028842462881
1557947619933,,30.319266151084513,66.73893229166666,,,,,,,
1557947619973,,30.03250667557093,,,,,,,,
1557947619974,,,66.73893229166666,,,,,,,
1557947619976,4.0,,,,,,,,,
1557947619993,5.0,,,2.754143367866927,10.017339706420898,1.900996208190918,6.836642742156982,999.6799926757813,209.2120993541629,36.18342168039588
1557947620013,,30.707920290882154,,,,,,,,
1557947620053,,31.311754033208015,,,,,,,,
1557947620054,,,0.0,,,,,,,
1557947620070,,,,5.316363197841847,9.457097053527832,0.6607996821403503,,,193.13097902887978,36.41332239072848
1557947620071,,,,,,,9.853337287902832,,,
1557947620093,5.0,40.565821257377905,,,,,,,,
1557947620119,,,,,7.527369976043701,-1.742978811264038,,,183.54105192472343,35.95274757210358
1557947620120,,,,0.5707654330205162,,,5.141548156738281,,,
1557947620153,,37.835547714828074,,,,,,,,
1557947620164,,,99.879150390625,,,,,,,
1557947620182,,,,,7.536946773529053,,,,,
1557947620183,2.0,,,0.8166835259299781,,-4.2951979637146,4.246116638183594,999.6900024414063,175.85589701307782,35.62555326761649
1557947620193,,35.330803489550924,,,,,,,,
1557947620194,,,99.879150390625,,,,,,,
1557947620226,2.0,,,,,,,,,
1557947620234,,34.205091006388756,99.879150390625,,,,,,,
1557947620241,,,,2.6451756919098126,9.346963882446289,-2.9257144927978516,7.004237174987793,,172.74474584613702,35.94593285167701
1557947620243,,,99.345703125,,,,,,,
1557947620274,,34.477897867655344,99.345703125,,,,,,,
1557947620310,,,,,9.68694019317627,,,,,
1557947620311,,,,5.149591018585011,,-2.3080103397369385,8.910021781921387,,161.35984502810126,36.400412854798184
1557947620313,,32.63505385851919,,,,,,,,
1557947620314,,,99.345703125,,,,,,,
1557947620323,,,100.3564453125,,,,,,,
1557947620349,2.0,,,,,,,,,
1557947620363,,,,,9.567230224609375,-0.5123591423034668,,,186.60272520131662,
1557947620364,1.0,,,3.917025542895876,,,4.0114850997924805,999.699951171875,,36.7821973721758
1557947620373,,44.7634268003582,100.3564453125,,,,,,,
1557947620413,,39.251773475421395,100.3564453125,,,,,,,
1557947620434,,,,,10.740388870239258,-2.298433542251587,,,,
1557947620435,,,,3.5977999216358665,,,2.5031378269195557,,202.55934483840872,37.3472885112774
1557947620453,,39.13378346563109,100.3564453125,,,,,,,
1557947620477,1.0,,,,,,,,,
1557947620490,,,,1.4338811019915276,9.38048267364502,-3.6774938106536865,3.044227361679077,,192.38486282432598,37.563811889690896
1557947620493,,36.01265490084519,,,,,,,,
1557947620533,,34.13186651831126,,,,,,,,
1557947620542,,,1399.033203125,,,,,,,
1557947620551,,,,,8.791508674621582,,,,,
1557947620552,0.0,,,0.5371987008463246,,-3.3901896476745605,3.81994891166687,999.7599487304688,172.39960272699793,38.41210838140588
1557947620573,,33.90359675730352,,,,,,,,
1557947620574,,,1399.033203125,,,,,,,
1557947620584,0.0,,,,,,,,,
1557947620616,,,,,8.164227485656738,,,,,
1557947620617,,,,1.0366662294585194,,-2.8826189041137695,2.292448043823242,,182.17934443065462,39.26130412896837
1557947620633,,33.199048721616585,,,,,,,,
1557947620634,,,1399.033203125,,,,,,,
1557947620673,,32.376034243997445,,,,,,,,
1557947620684,,,,1.3322007862836107,7.7763671875,-3.002328872680664,3.81994891166687,,154.57666121995652,40.06607045657279
1557947620696,0.0,,,,,,,,,
1557947620713,,32.5881817614107,,,,,,,,
1557947620724,,,1794.5849609375,,,,,,,
1557947620740,,,,,8.317456245422363,-3.045424461364746,,,141.2242970907419,
1557947620741,,,,1.2791853295537676,,,3.728969097137451,999.72998046875,,41.362182416302666
1557947620753,,35.35718341732879,,,,,,,,
1557947620754,,,1794.5849609375,,,,,,,
1557947620794,,34.49130409597331,1794.5849609375,,,,,,,
1557947620800,0.0,,,,,,,,,
1557947620804,,,,,8.432378768920898,-2.8155810832977295,,,149.31685548353477,
1557947620805,,,,0.8545362363088451,,,2.8622682094573975,,145.86352549955467,42.54339035462749
1557947620833,,34.784931450937066,,,,,,,,
1557947620866,,,,0.8523669161913224,8.916007041931152,-3.3901896476745605,3.9396588802337646,,140.79787472047968,43.98022370923833
1557947620893,,33.27291549647393,,,,,,,,
1557947620902,,,99.305419921875,,,,,,,
1557947620919,0.0,,,,,,,,,
1557947620932,,,,1.5734388819274592,9.940725326538086,-4.10366153717041,3.7193922996520996,999.699951171875,141.68157825567428,44.99833554474532
1557947620934,,33.11113312107976,99.305419921875,,,,,,,
1557947620973,,31.988166826091543,,,,,,,,
1557947620974,,,99.305419921875,,,,,,,
1557947620985,,,100.0830078125,,,,,,,
1557947620994,,,,1.956513661906943,10.266336441040039,-3.8067808151245117,,,134.8118286299888,46.64857986022151
1557947620995,,,,,,,4.112041473388672,,,
1557947621013,,31.317519552988543,,,,,,,,
1557947621014,,,100.0830078125,,,,,,,
1557947621043,0.0,,,,,,,,,
1557947621053,,33.10586008530214,,,,,,,,
1557947621054,,,100.0830078125,,,,,,,
1557947621069,,,,2.2054552240662986,7.68538761138916,-3.8115692138671875,5.261258125305176,,123.6274894867413,48.03134484703018
1557947621113,,35.54863907882079,,,,,,,,
1557947621129,,,,2.004609518102805,6.215347766876221,-3.509899616241455,4.859032154083252,999.72998046875,116.43801870600754,49.77730482236276
1557947621153,,35.91454879060855,,,,,,,,
1557947621169,0.0,,,,,,,,,
1557947621193,,39.38672249747091,,,,,,,,
1557947621196,,,,,7.570465564727783,,,,,
1557947621197,,,,1.687359768727607,,-4.036623954772949,4.772840976715088,,119.1042376900354,51.23563215206571
1557947621204,,,54.599609375,,,,,,,
1557947621233,,31.55014183465157,54.599609375,,,,,,,
1557947621259,,,,1.9484570071690088,8.279149055480957,-4.338293552398682,5.199008941650391,,116.19995929267594,53.00669997880798
1557947621273,,30.343641687200694,,,,,,,,
1557947621274,,,54.599609375,,,,,,,
1557947621282,,,44.8681640625,,,,,,,
1557947621297,0.0,,,,,,,,,
1557947621309,,,,,6.291962146759033,-3.8786067962646484,,,105.57658358596157,
1557947621310,,,,2.097371286255356,,,5.108029365539551,999.739990234375,,54.18136224760379
1557947621314,,30.532637637696716,44.8681640625,,,,,,,
1557947621371,,,,3.3297353081423813,6.6127848625183105,-4.486733913421631,6.003460884094238,,101.53251054066709,55.613487731160156
1557947621375,,31.112089378444647,44.8681640625,,,,,,,
1557947621403,0.0,,,,,,,,,
1557947621414,,29.9985770000786,,,,,,,,
1557947621440,,,,,7.038952827453613,-3.509899616241455,,,103.22031858646892,
1557947621441,,,,1.486336706790887,,,3.8821980953216553,,104.1446344264684,55.78153775967444
1557947621454,,30.003294411940445,0.0,,,,,,,
1557947621493,,32.75644339554419,,,,,,,,
1557947621496,,,,1.3902830496421414,6.4164605140686035,-3.2561142444610596,,,103.9423105628743,55.93835838298595
1557947621497,,,,,,,3.776853084564209,999.699951171875,,
1557947621522,0.0,,,,,,,,,
1557947621533,,31.746033657551713,,,,,,,,
1557947621546,,,217.31465657552084,,,,,,,
1557947621559,,,,1.3440783343505482,7.015010833740234,-3.5482068061828613,3.906140089035034,,103.98785426425991,56.02311969378084
1557947621573,,31.189899083537544,,,,,,,,
1557947621574,,,217.31465657552084,,,,,,,
1557947621624,,,,,8.269572257995605,,,,,
1557947621625,,,,0.9422776870202205,,-2.6384103298187256,3.776853084564209,,98.67288792010118,55.049340807703885
1557947621633,,30.356754603209847,,,,,,,,
1557947621634,,,217.31465657552084,,,,,,,
1557947621640,0.0,,,,,,,,,
1557947621673,,30.914368553747728,,,,,,,,
1557947621689,,,,,7.163451671600342,,,,,
1557947621690,,,,1.1042893119690662,,-2.408566951751709,5.0266265869140625,999.6900024414063,98.64982237127401,55.242283691702305
1557947621713,,36.65404151594058,,,,,,,,
1557947621721,,,76.5869140625,,,,,,,
1557947621748,,,,,8.508993148803711,,,,,
1557947621750,,,,1.2005749219293183,,-2.7006595134735107,4.327519416809082,,97.33506559755995,54.054141926400234
1557947621754,,36.66349325256623,76.5869140625,,,,,,,
1557947621758,0.0,,,,,,,,,
1557947621793,,37.35591207335406,,,,,,,,
1557947621794,,,76.5869140625,,,,,,,
1557947621812,,,,,10.764330863952637,,,,,
1557947621813,,,,2.9008657149827366,,-4.333505153656006,4.935647010803223,,102.0517551817498,53.224338561248885
1557947621853,,38.028768366172194,76.5869140625,,,,,,,
1557947621866,,,40.615234375,,,,,,,
1557947621872,0.0,,,,,,,,,
1557947621874,,,,2.953980659974258,9.706093788146973,-5.4444146156311035,,,100.26635056289763,52.28278969640262
1557947621875,,,,,,,5.826289653778076,999.699951171875,,
1557947621893,,34.98549895531768,40.615234375,,,,,,,
1557947621933,,46.760292883911106,,,,,,,,
1557947621934,,,40.615234375,,,,,,,
1557947621941,,,,3.3399681023542205,11.013327598571777,-5.238513469696045,4.523844242095947,,105.51643010994127,52.21513261009823
1557947621973,,41.340064977640026,,,,,,,,
1557947621991,0.0,,,,,,,,,
1557947622000,,,,2.6246918997016344,10.644620895385742,-4.132391929626465,,,101.5765994117595,51.29229957330565
1557947622001,,,,,,,4.025850296020508,,,
1557947622013,,35.2082006787917,,,,,,,,
1557947622022,,,1504.19921875,,,,,,,
1557947622054,,33.93258323241358,1504.19921875,,,,,,,
1557947622063,,,,,6.009446144104004,-4.146757125854492,,,103.59519351906505,51.33517326653447
1557947622064,,,,2.5854100729596703,,,0.11372458189725876,999.719970703125,,
1557947622104,0.0,,,,,,,,,
1557947622113,,33.22352621629621,,,,,,,,
1557947622114,,,1504.19921875,,,,,,,
1557947622130,,,,4.85078637738294,4.955997467041016,-2.5234885215759277,0.7793126702308655,,122.84480444937122,50.86747487343951
1557947622153,,32.72672169330293,,,,,,,,
1557947622194,,30.563342270182616,,,5.272032260894775,-3.4332852363586426,,,108.62640648434484,50.86118363631461
1557947622195,,,,3.179416054426277,,,3.1016883850097656,,,
1557947622203,,,45.6201171875,,,,,,,
1557947622233,,29.92544773683456,,,,,,,,
1557947622234,0.0,,45.6201171875,,,,,,,
1557947622260,,,,3.0774928959161,7.762001991271973,-0.608127236366272,4.911705017089844,999.719970703125,110.78332558272149,51.72011360818686
1557947622273,,30.78876907104915,,,,,,,,
1557947622274,,,45.6201171875,,,,,,,
1557947622313,,34.73075290106931,,,,,,,,
1557947622317,,,,2.3721358446073437,6.421248912811279,-2.365471363067627,3.001131772994995,,104.95431237143839,51.74562929134052
1557947622360,0.0,,,,,,,,,
1557947622374,,34.55558811077661,,,,,,,,
1557947622386,,,,,9.849745750427246,-4.572925090789795,,,104.68852239007651,
1557947622387,,,75.53548177083334,2.5138544521701243,,,5.701791286468506,,,51.88834313920904
1557947622413,,40.160462908422346,,,,,,,,
1557947622414,,,75.53548177083334,,,,,,,
1557947622447,,,,7.861512517247421,14.216769218444824,-5.372588634490967,8.790311813354492,999.6699829101563,98.0707930843862,51.66275397532958
1557947622453,,35.17583625256667,,,,,,,,
1557947622454,,,75.53548177083334,,,,,,,
1557947622461,,,100.8349609375,,,,,,,
1557947622493,,38.87845339990242,,,,,,,,
1557947622494,,,100.8349609375,,,,,,,
1557947622500,0.0,,,,,,,,,
1557947622523,,,,3.174626852620847,9.57201862335205,-5.635950565338135,5.87896203994751,,106.01878369320656,51.089332772073895
1557947622533,,35.04586670241854,,,,,,,,
1557947622534,,,100.8349609375,,,,,,,
1557947622590,,,,1.8090882912551949,7.474697589874268,-4.908113479614258,4.595670223236084,,107.8486460133663,50.42112868374651
1557947622593,,33.845375611497765,100.8349609375,,,,,,,
1557947622605,,,100.2197265625,,,,,,,
1557947622624,0.0,,,,,,,,,
1557947622633,,32.84236338863537,100.2197265625,,,,,,,
1557947622650,,,,1.9007294559595265,6.378153324127197,-2.695871114730835,5.8406548500061035,999.72998046875,108.27961728961577,50.17509569730129
1557947622673,,32.15994125091899,,,,,,,,
1557947622674,,,100.2197265625,,,,,,,
1557947622685,,,100.7568359375,,,,,,,
1557947622704,,,,,5.655104637145996,-2.2697031497955322,,,,
1557947622705,,,,2.9352351446364704,,,3.1926679611206055,,100.85186169930779,49.96899261701996
1557947622714,,31.501365589628115,100.7568359375,,,,,,,
1557947622747,0.0,,,,,,,,,
1557947622753,,31.5087263901072,,,,,,,,
1557947622754,,,100.7568359375,,,,,,,
1557947622762,,,,3.430170742044786,5.281609058380127,-2.231395959854126,2.8574798107147217,,102.94722030269514,50.35414583701588
1557947622793,,30.168760617698965,,,,,,,,
1557947622819,,,,3.4406374398404203,5.942408561706543,-3.404554843902588,,,103.07298457588257,50.35414583701588
1557947622820,,,,,,,3.9875428676605225,999.75,,
1557947622854,,31.794621715813555,0.0,,,,,,,
1557947622862,0.0,,,,,,,,,
1557947622882,,,,,7.762001991271973,-3.308786630630493,,,,
1557947622883,,,,0.7202760832015072,,,4.887762546539307,,100.53664163892256,50.35414583701588
1557947622893,,35.88377407326042,,,,,,,,
1557947622933,,35.16906698290943,,,,,,,,
1557947622948,,,81.97672526041666,,,,,,,
1557947622950,,,,,10.84094524383545,-4.970362663269043,,,,
1557947622951,,,,3.71702984687618,,,6.3051300048828125,,103.26750836344456,50.35414583701588
1557947622973,,34.864838325152995,,,,,,,,
1557947622974,,,81.97672526041666,,,,,,,
1557947622983,0.0,,,,,,,,,
1557947623014,,34.85390730598392,81.97672526041666,3.6946455694408717,10.788272857666016,-3.2992098331451416,4.878185749053955,999.719970703125,103.44657543291476,49.6292269008206
1557947623026,,,84.8046875,,,,,,,
1557947623053,,39.89138456139281,,,,,,,,
1557947623054,,,84.8046875,,,,,,,
1557947623071,,,,4.0647398422717735,11.583148002624512,-3.050212860107422,5.941211700439453,,96.01851248409412,49.751484031587836
1557947623096,0.0,,,,,,,,,
1557947623113,,36.40006944683025,,,,,,,,
1557947623114,,,84.8046875,,,,,,,
1557947623128,,,78.02734375,,,,,,,
1557947623139,,,,1.9786997461835576,9.897629737854004,-3.4380736351013184,4.332307815551758,,102.61905703383269,49.01122336209865
1557947623154,,36.17877135921511,,,,,,,,
1557947623155,,,78.02734375,,,,,,,
1557947623193,,33.29560688081769,,,,,,,,
1557947623194,,,78.02734375,,,,,,,
1557947623203,,,,,6.1530985832214355,-1.5179238319396973,,,92.91284595905682,
1557947623204,,,,2.8070428250820263,,,3.9923312664031982,999.739990234375,93.823289684852,48.75756365078864
1557947623230,0.0,,,,,,,,,
1557947623234,,31.803188600177926,78.02734375,,,,,,,
1557947623243,,,62.9052734375,,,,,,,
1557947623270,,,,5.370102181199482,3.993528366088867,-1.259350061416626,1.5406688451766968,,104.67818148367311,48.75756365078864
1557947623274,,31.061423609243214,62.9052734375,,,,,,,
1557947623333,,33.01131884577792,62.9052734375,,6.856993675231934,,,,,
1557947623334,,,0.0,3.266149159395648,,-0.8427590131759644,1.5646108388900757,,91.36487237613267,48.605043127619474
1557947623359,0.0,,,,,,,,,
1557947623373,,36.46640783359234,,,,,,,,
1557947623400,,,,3.155111579675146,9.950302124023438,-3.5721490383148193,,999.7699584960938,90.93720008125229,48.940885071976616
1557947623401,,,,,,,4.001908302307129,,,
1557947623413,,38.06867274834009,,,,,,,,
1557947623422,,,101.015625,,,,,,,
1557947623453,,38.41328277885735,101.015625,,,,,,,
1557947623463,,,,,13.081917762756348,-5.430049419403076,,,103.96739784769574,49.376310908431456
1557947623464,,,,6.199140907572867,,,6.688202381134033,,,
1557947623488,0.0,,,,,,,,,
1557947623493,,36.27502885695448,,,,,,,,
1557947623494,,,101.015625,,,,,,,
1557947623504,,,101.669921875,,,,,,,
1557947623521,,,,,12.066776275634766,-5.39174222946167,,,102.07405574938986,
1557947623522,,,,5.569138241302008,,,6.683413982391357,,101.12492583213572,49.26601504427054
1557947623533,,40.08008046491541,,,,,,,,
1557947623534,,,101.669921875,,,,,,,
1557947623583,,,,,9.169792175292969,-4.702212333679199,,,,
1557947623584,,,,5.444142460827882,,,4.222174644470215,999.7899780273438,100.95710808422848,48.79846550920912
1557947623593,,34.23347436438013,,,,,,,,
1557947623594,,,101.669921875,,,,,,,
1557947623599,0.0,,,,,,,,,
1557947623634,,33.63059163944377,,,,,,,,
1557947623638,,,,2.2373781096434002,6.57926607131958,-2.5330653190612793,3.116053581237793,,100.89312970227297,48.424891288292635
1557947623673,,32.22420962616636,,,,,,,,
1557947623686,,,49.946114676339285,,,,,,,
1557947623701,,,,2.2048637076401794,6.952761650085449,-1.7956513166427612,2.7042508125305176,,96.73820951693835,48.424891288292635
1557947623713,,34.92202398118988,,,,,,,,
1557947623714,,,49.946114676339285,,,,,,,
1557947623716,0.0,,,,,,,,,
1557947623753,,31.918023916042383,,,,,,,,
1557947623754,,,49.946114676339285,,,,,,,
1557947623765,,,38.6279296875,,,,,,,
1557947623768,1.0,,,0.9419317717677633,7.972691535949707,-2.0829553604125977,3.800795316696167,999.7599487304688,95.03835301744061,48.05663411749347
1557947623813,,32.02334039967483,38.6279296875,,,,,,,
1557947623830,,,,0.6431472947581646,8.14028549194336,-2.346317768096924,3.623624324798584,,97.43371401974241,47.802929580168346
1557947623847,1.0,,,,,,,,,
1557947623853,,31.43478333997853,38.6279296875,,,,,,,
1557947623854,,,0.0,,,,,,,
1557947623893,,34.444326529468476,,,,,,,,
1557947623913,,,,1.998738606356651,8.403648376464844,-2.6240451335906982,5.610811710357666,,94.18495503159335,48.08918864788329
1557947623933,,33.90037122931255,,,,,,,,
1557947623973,,34.6680330826472,,,,,,,,
1557947623978,,,,,10.448296546936035,-2.7724854946136475,,,93.91544259713385,
1557947623979,0.0,,,2.477758173111857,,,3.8295257091522217,999.7899780273438,,48.08918864788329
1557947623989,,,14.20259021577381,,,,,,,
1557947624013,,32.10861717051548,14.20259021577381,,,,,,,
1557947624018,,,,,10.970232009887695,-3.576937437057495,,,103.31775123497914,
1557947624019,,,,2.4558726673667532,,,3.489548921585083,,,48.424891288292635
1557947624073,,41.318536999137045,14.20259021577381,,,,,,,
1557947624090,,,,2.1354746988986384,10.730812072753906,-3.4955344200134277,3.1256303787231445,,103.67804371369732,48.74464019420345
1557947624105,0.0,,,,,,,,,
1557947624113,,35.93354843332217,,,,,,,,
1557947624152,,,,,7.0341644287109375,-1.4508862495422363,,,104.04885468373732,
1557947624153,,32.837718598498434,,3.6793662414913086,,,-0.14484919607639313,999.7799682617188,102.57120472850761,49.62579955103095
1557947624163,,,14.171665736607142,,,,,,,
1557947624193,,31.392566041393565,14.171665736607142,,,,,,,
1557947624215,,,,1.74112864250105,8.327033042907715,-1.6376339197158813,1.0857704877853394,,97.07131101257073,49.00703948077924
1557947624231,0.0,,,,,,,,,
1557947624233,,32.726754289958805,,,,,,,,
1557947624234,,,14.171665736607142,,,,,,,
1557947624273,,32.0501154769567,,,,,,,,
1557947624282,,,,4.392236814218665,5.2911858558654785,-0.9193734526634216,1.238999366760254,,93.22140658500132,49.16106337624032
1557947624332,,,,4.42750455161431,4.505887508392334,-2.121262788772583,2.9293057918548584,999.8299560546875,93.00469834301515,48.900410384814
1557947624333,,31.347901581527154,,,,,,,,
1557947624334,,,0.0,,,,,,,
1557947624350,0.0,,,,,,,,,
1557947624373,,31.505995936351724,,,,,,,,
1557947624411,,,,,5.726930618286133,,,,,
1557947624412,,,,4.210396641691979,,-3.667917013168335,-0.20709845423698425,,135.89653097207855,47.957691399161
1557947624414,,36.45181115338547,,,,,,,,
1557947624424,,,100.0390625,,,,,,,
1557947624453,,36.23788592154605,,,,,,,,
1557947624454,,,100.0390625,,,,,,,
1557947624476,0.0,,,5.991532708988649,14.192827224731445,-5.736507415771484,1.7082629203796387,,114.68587027822417,48.276393010938676
1557947624493,,40.653031942008546,,,,,,,,
1557947624494,,,100.0390625,,,,,,,
1557947624545,,,,6.3619841300912725,17.353174209594727,-5.521028995513916,9.575610160827637,999.7599487304688,107.28807872780504,48.214728582065874
1557947624553,,35.42334455366886,,,,,,,,
1557947624590,,,,11.07245080685018,17.62611198425293,-4.098873138427734,7.569268703460693,,88.2623409079244,48.69804843149022
1557947624593,,36.865624936254335,,,,,,,,
1557947624607,0.0,,,,,,,,,
1557947624633,,35.012371135694224,,,,,,,,
1557947624646,,,71.5618896484375,,,,,,,
1557947624647,,,71.5618896484375,,,,,,,
1557947624650,,,,,11.765107154846191,,,,,
1557947624651,,,,4.723012855513905,,-5.4444146156311035,5.792770862579346,,85.9818227063272,48.73222714450244
1557947624673,,39.39494760464771,,,,,,,,
1557947624674,,,71.5618896484375,,,,,,,
1557947624713,,41.254721669732305,71.5618896484375,,,,,,,
1557947624717,,,,,6.914454460144043,-4.788403511047363,,,83.53520796449357,
1557947624718,1.0,,,4.911278741276218,,,4.049792289733887,999.7999877929688,,48.484326993258954
1557947624721,,,43.06640625,,,,,,,
1557947624736,1.0,,,,,,,,,
1557947624753,,36.045758955147086,,,,,,,,
1557947624754,,,43.06640625,,,,,,,
1557947624779,,,,4.866519300415684,4.5154643058776855,-3.648763418197632,2.0913352966308594,,97.68509230195559,47.949243276629424
1557947624813,,33.219066021848576,43.06640625,,,,,,,
1557947624849,,,,5.773301057145344,3.7445313930511475,-3.9600095748901367,2.560598611831665,,99.63870398949763,47.099256541221976
1557947624854,,36.182018276243404,,,,,,,,
1557947624865,1.0,,,,,,,,,
1557947624894,,31.209339803857578,,,,,,,,
1557947624905,,,38.209228515625,,,,,,,
1557947624913,,,,,2.31758713722229,,,,,
1557947624914,,,,5.819409928969321,,-4.778826713562012,2.4169466495513916,999.7999877929688,107.80018582120508,47.37604846609434
1557947624933,,33.98954438731858,38.209228515625,,,,,,,
1557947624973,,37.87451101898383,,,,,,,,
1557947624974,,,38.209228515625,,,,,,,
1557947624979,,,,7.614723660019255,1.5514427423477173,-4.874594688415527,1.3251906633377075,,110.20277316364877,48.425717159350995
1557947624995,1.0,,,,,,,,,
1557947625013,,33.474956906420196,,,,,,,,
1557947625036,,,,3.805110712032273,4.812345504760742,-7.072471618652344,2.6850972175598145,,115.44040127583548,48.838099462082866
1557947625074,,38.24653324484992,,,,,,,,
1557947625086,,,75.8544921875,,,,,,,
1557947625103,,,,,12.612654685974121,-14.585476875305176,,,114.13573952171467,
1557947625104,,,,1.7145336800574287,,,3.178302764892578,999.8200073242188,126.20087253957036,48.80922046111566
1557947625113,,43.12060495326133,,,,,,,,
1557947625114,,,75.8544921875,,,,,,,
1557947625121,1.0,,,,,,,,,
1557947625157,,37.59776916010035,75.8544921875,,,,,,,
1557947625165,,,,,16.09861183166504,-12.981361389160156,,,,
1557947625166,,,42.2900390625,11.795615749223112,,,-0.22625206410884857,,136.66959910309726,48.68870506641428
1557947625195,,36.079366352902056,42.2900390625,,,,,,,
1557947625224,,,,8.601378893646665,12.263101577758789,-6.406883716583252,-0.1496376097202301,,123.64176458210665,48.87719408188609
1557947625234,,33.831906372385134,42.2900390625,,,,,,,
1557947625238,1.0,,,,,,,,,
1557947625242,,,39.7998046875,,,,,,,
1557947625287,,,,8.211919114284479,8.422801971435547,-3.2848446369171143,,999.8200073242188,79.1095185898921,49.92975158849647
1557947625288,,,,,,,-0.02992752194404602,,,
1557947625293,,31.000805237027844,39.7998046875,,,,,,,
1557947625333,,35.40523359532343,39.7998046875,,,,,,,
1557947625354,,,,5.087666254349769,5.789179801940918,-3.4572272300720215,-0.5183446407318115,,85.76200672826866,49.49161631246589
1557947625357,1.0,,,,,,,,,
1557947625373,,36.61055775976922,39.7998046875,,,,,,,
1557947625383,,,40.390625,,,,,,,
1557947625407,,,,3.742920232405428,6.358999729156494,-4.079719543457031,1.047463297843933,,59.50686884176639,49.47817921189496
1557947625414,,35.7517298558422,40.390625,,,,,,,
1557947625453,,36.87491384272904,,,,,,,,
1557947625454,,,40.390625,,,,,,,
1557947625463,,,53.8623046875,,,,,,,
1557947625474,,,,3.394291315060353,11.5065336227417,-9.074024200439453,,,45.92310814875549,49.65420429834059
1557947625475,1.0,,,,,,0.9038111567497253,999.8399658203125,,
1557947625493,,40.701717534331834,,,,,,,,
1557947625494,,,53.8623046875,,,,,,,
1557947625531,,,,,14.949395179748535,,,,,
1557947625532,,,,9.499034631769003,,-10.668562889099121,4.001908302307129,,47.932003387439636,50.12324996671051
1557947625553,,40.742165906747346,53.8623046875,,,,,,,
1557947625560,,,53.8330078125,,,,,,,
1557947625593,,48.972980561804064,53.8330078125,,,,,,,
1557947625610,1.0,,,10.186752572754264,12.344504356384277,-12.593501091003418,6.381744861602783,,50.859835692151876,49.88366561525771
1557947625633,,53.6505420996197,53.8330078125,,,,,,,
1557947625666,,,,6.805865215427529,7.5417351722717285,-10.84094524383545,,,57.38371136845706,49.67514609328332
1557947625667,,,,,,,3.269282341003418,999.8499755859375,,
1557947625673,,39.27366887214766,,,,,,,,
1557947625713,,35.54382201060558,,,,,,,,
1557947625722,,,96.8994140625,,,,,,,
1557947625734,1.0,,,4.899597711981853,5.95677375793457,-8.508993148803711,2.914940595626831,,57.47740107330213,48.95355026104237
1557947625753,,34.554186194111566,,,,,,,,
1557947625754,,,96.8994140625,,,,,,,
1557947625797,,,,5.21208230959116,4.194641590118408,-6.04775333404541,0.7170634269714355,,82.1259486934232,47.959462562521374
1557947625813,,32.921893617768355,,,,,,,,
1557947625814,,,96.8994140625,,,,,,,
1557947625845,,,,,2.365471363067627,-6.244078159332275,,,109.90029823625474,47.84056844845634
1557947625846,,,,5.531161205204031,,,0.4489128291606903,999.8099975585938,,
1557947625853,,34.49662771279572,,,,,,,,
1557947625869,1.0,,,,,,,,,
1557947625893,,35.363683708469694,,,,,,,,
1557947625901,,,1247.36328125,,,,,,,
1557947625925,,,,8.328808382491797,0.8810662031173706,-4.256890773773193,1.4257471561431885,,72.36719297336242,47.38206386835815
1557947625933,,34.183741510916846,,,,,,,,
1557947625934,,,1247.36328125,,,,,,,
1557947625973,,31.297442561510508,,,,,,,,
1557947625974,,,1247.36328125,,,,,,,
1557947625993,,,,,3.9264907836914063,-6.8809356689453125,,,114.1903263935614,
1557947625994,1.0,,,5.514609440577319,,,0.9900023937225342,,116.61530309610441,47.6707462803574
1557947626034,,30.95101033338828,1247.36328125,,,,,,,
1557947626035,,,,4.504206492729923,8.485051155090332,-10.462661743164063,1.416170358657837,999.8599853515625,117.61152716768578,47.552392685144746
1557947626073,,38.10971329911819,,,,,,,,
1557947626099,,,,,12.646173477172852,-13.584700584411621,,,,
1557947626100,,,,8.887320978907475,,,0.2621650993824005,,127.49881338754784,47.26298711163009
1557947626113,,38.33555764638477,,,,,,,,
1557947626125,1.0,,,,,,,,,
1557947626133,,,63.2470703125,,,,,,,
1557947626153,,36.39109835749375,63.2470703125,,,,,,,
1557947626171,,,,6.572933078106575,11.760318756103516,-8.312667846679688,-0.6955155730247498,,125.26965820850916,47.8365974981073
1557947626193,,38.733887577844996,63.2470703125,,,,,,,
1557947626227,,,,,10.27591323852539,,,,,
1557947626228,0.0,,,7.841308943412759,,-7.158663272857666,-2.519897222518921,999.8599853515625,103.64831190024029,48.14073267532491
1557947626233,,36.189225089043916,,,,,,,,
1557947626254,0.0,,,,,,,,,
1557947626293,,41.457984090676845,,,,,,,,
1557947626302,,,,6.9971277611258165,9.859322547912598,-4.9368438720703125,0.5446808934211731,,89.99134865479976,49.13125389923094
1557947626304,,,73.33984375,,,,,,,
1557947626333,,38.764831476845856,73.33984375,,,,,,,
1557947626352,,,,,9.739612579345703,-4.553771495819092,,,67.22985935894815,49.925045971187906
1557947626353,,,,6.352174473708479,,,-0.07781155407428741,,,
1557947626373,,32.21391142238902,73.33984375,,,,,,,
1557947626382,0.0,,84.9169921875,,,,,,,
1557947626413,,40.985119720036906,84.9169921875,,,,,,,
1557947626424,1.0,,,4.685082587915694,9.141061782836914,-3.97916316986084,0.13766659796237946,999.8699951171875,50.186320983380654,50.989412275339824
1557947626453,,38.315652536548136,,,,,,,,
1557947626454,,,84.9169921875,,,,,,,
1557947626481,,,,,8.676587104797363,-6.670246124267578,,,50.98750217302319,
1557947626482,,,,3.1948480618307333,,,2.388216257095337,,46.52578013545531,51.30984379796824
1557947626493,,36.9520011834539,,,,,,,,
1557947626508,1.0,,,,,,,,,
1557947626551,,,,7.839354480326355,11.377246856689453,-11.769895553588867,3.863044500350952,,49.33752996012862,51.383072452128324
1557947626553,,38.321918578305635,,,,,,,,
1557947626561,,,1692.2314453125,,,,,,,
1557947626594,,37.33589897629685,1692.2314453125,,,,,,,
1557947626613,0.0,,,7.832055603141689,12.334927558898926,-11.444284439086914,6.051344871520996,999.8999633789063,52.51391284873762,50.66389141981525
1557947626634,,37.43447087030625,1692.2314453125,,,,,,,
1557947626639,0.0,,,,,,,,,
1557947626673,,35.156161945918214,,,,,,,,
1557947626682,,,,,8.604761123657227,-10.989385604858398,,,52.31325896639555,
1557947626683,,,,6.803681151367446,,,3.8726212978363037,,58.43027393422142,49.598892122247406
1557947626713,,34.532002087539425,,,,,,,,
1557947626741,,,,4.42860746588745,6.962338447570801,-8.710105895996094,3.2597055435180664,,57.585768854673574,49.3887654954599
1557947626767,0.0,,,,,,,,,
1557947626773,,42.479967158927494,,,,,,,,
1557947626784,,,41.806640625,,,,,,,
1557947626809,,,,,5.7125654220581055,,,,,
1557947626810,1.0,,,4.754071548584697,,-7.273584842681885,1.823184609413147,999.8800048828125,65.56500074875754,48.189728752872135
1557947626813,,40.0117270683281,41.806640625,,,,,,,
1557947626852,,,,4.648507869412216,5.463568210601807,-7.704541206359863,1.655590534210205,,73.43105640829447,48.24489737771076
1557947626857,,41.96888165889389,41.806640625,,,,,,,
1557947626863,,,0.0,,,,,,,
1557947626893,,39.637884665919444,,,,,,,,
1557947626901,1.0,,,,,,,,,
1557947626919,,,,5.3818406333619055,4.912901878356934,-7.55131196975708,2.5701754093170166,,67.17299120391863,48.016456524010536
1557947626933,,38.08026635857105,,,,,,,,
1557947626943,,,1572.548828125,,,,,,,
1557947626973,,35.66332699380044,,,,,,,,
1557947626974,,,1572.548828125,,,,,,,
1557947626988,3.0,,,4.884004151463599,4.252102375030518,-7.321468830108643,3.264493942260742,999.8899536132813,71.96336486887458,48.26520574178289
1557947627022,3.0,,,,,,,,,
1557947627033,,34.46941718863361,,,,,,,,
1557947627034,,,1572.548828125,,,,,,,
1557947627053,,,,,6.086060523986816,-8.288725852966309,,,81.90381728123606,
1557947627054,,,,3.3360259783622945,,,1.4257471561431885,,,47.930783981702064
1557947627074,,35.09273246291386,,,,,,,,
1557947627113,,34.62348934202846,,,4.5825018882751465,,,,,
1557947627114,,,,2.69821673949726,,-6.751648902893066,1.7082629203796387,,80.91771555000463,47.69497014043285
1557947627119,,,0.0,,,,,,,
1557947627147,3.0,,,,,,,,,
1557947627154,,33.44642142195813,,,,,,,,
1557947627180,2.0,,,3.051674530113613,9.035717010498047,-7.90086555480957,1.191115379333496,999.8699951171875,82.80120851552732,47.49031553544759
1557947627194,,38.61013663499762,,,,,,,,
1557947627202,,,0.0,,,,,,,
1557947627233,,36.08614664018695,,,,,,,,
1557947627247,,,,6.3496069718928085,9.040505409240723,-8.777143478393555,-2.0841526985168457,,98.74155864201646,48.049661414058015
1557947627263,2.0,,,,,,,,,
1557947627294,,36.368860364788475,,,,,,,,
1557947627301,,,,5.962963874734335,9.169792175292969,-7.2352776527404785,-2.4576480388641357,,82.04290042330501,48.75417949738398
1557947627302,,,285.0732421875,,,,,,,
1557947627333,,37.44026235604946,,,,,,,,
1557947627334,,,285.0732421875,,,,,,,
1557947627358,0.0,,,4.811762963866213,9.136273384094238,-7.417236804962158,-0.6332663297653198,999.8399658203125,39.631284734406904,49.048649619798475
1557947627373,,35.413977950228805,,,,,,,,
1557947627374,,,285.0732421875,,,,,,,
1557947627403,0.0,,,,,,,,,
1557947627413,,40.064730620386506,,,,,,,,
1557947627414,,,285.0732421875,,,,,,,
1557947627430,,,,3.4900931066647027,9.006986618041992,-6.282385349273682,-0.2693476974964142,,39.01641744494401,49.21879679321003
1557947627453,,45.91549524571498,,,,,,,,
1557947627488,,,,,8.465897560119629,,,,,
1557947627489,,,,2.879809296175083,,-5.880159378051758,-0.6189011335372925,,26.451405079849906,48.85017855298259
1557947627513,,41.59937844512299,,,,,,,,
1557947627521,,,0.0,,,,,,,
1557947627528,0.0,,,,,,,,,
1557947627553,,39.44846719249052,,,,,,,,
1557947627554,,,,,7.283161640167236,-6.478709697723389,,,13.470844859425881,
1557947627555,1.0,,,1.9385713261038944,,,1.4449007511138916,999.8800048828125,11.382960190537801,48.98510198620103
1557947627593,,40.20697984139752,,,,,,,,
1557947627602,,,906.66015625,,,,,,,
1557947627609,,,,3.386425740415567,6.861782073974609,-6.62236213684082,2.713827610015869,,9.127439627529213,48.58322990953927
1557947627633,,39.59125797125685,,,,,,,,
1557947627634,,,906.66015625,,,,,,,
1557947627649,1.0,,,,,,,,,
1557947627673,,33.158834647581095,,,,,,,,
1557947627674,,,906.66015625,,,,,,,
1557947627679,,,,4.317844562045663,7.259219646453857,-7.843404769897461,3.772064685821533,,0.6622728043667507,48.30093390152288
1557947627713,,33.566518763719984,,,,,,,,
1557947627758,,,,4.247125887951223,7.661445617675781,-9.083600997924805,4.10246467590332,999.8499755859375,0.38788465537646744,48.228728145816625
1557947627774,1.0,34.62631851799598,,,,,,,,
1557947627784,,,62.2802734375,,,,,,,
1557947627801,,,,2.4552365102487674,8.250418663024902,-4.525041103363037,2.474407434463501,,5.65366987557104,48.156621790595054
1557947627814,,39.47839840532063,62.2802734375,,,,,,,
1557947627854,,37.862734515547615,62.2802734375,,,,,,,
1557947627861,,,48.115234375,,,,,,,
1557947627885,,,,2.746034537446164,8.959102630615234,-8.135497093200684,1.3108254671096802,,9.287114936172145,47.95842176193367
1557947627894,,34.37451866159067,48.115234375,,,,,,,
1557947627909,1.0,,,,,,,,,
1557947627934,0.0,35.600063761865066,48.115234375,4.435857549459482,9.198522567749023,-8.757989883422852,2.890998601913452,999.8899536132813,7.0410136309157565,47.71687560581477
1557947627946,,,39.5361328125,,,,,,,
1557947627947,,,39.5361328125,,,,,,,
1557947627974,,33.65859195561598,39.5361328125,,,,,,,
1557947627997,,,,,9.030928611755371,-7.977479934692383,,,,
1557947627998,,,,,,,,,358.0964717417641,47.106371288439554
1557947627999,,,,3.770487704516118,,,2.2014684677124023,,,
1557947628029,0.0,,,,,,,,,
1557947628034,,31.651864979788314,39.5361328125,,,,,,,
1557947628041,,,44.375,,,,,,,
1557947628056,,,,,7.838616371154785,,,,,
1557947628057,,,,5.045363822952417,,-8.695740699768066,3.8774096965789795,,349.489387301388,46.72065856791136
1557947628074,,31.767565166794046,44.375,,,,,,,
1557947628113,,43.100469756508105,,,,,,,,
1557947628114,1.0,,44.375,4.748942608844585,7.42681360244751,-9.102754592895508,3.9157168865203857,999.8800048828125,354.4979637390978,46.13718760014398
1557947628142,1.0,,,,,,,,,
1557947628154,,43.78910540484496,44.375,,,,,,,
1557947628177,,,,,5.985504150390625,-8.853757858276367,,,,
1557947628178,,,,5.50807862416695,,,3.049015760421753,,352.8374785844102,45.89270098647246
1557947628193,,42.82414287024936,,,,,,,,
1557947628240,,,,5.598992645395105,4.630385875701904,-8.2312650680542,,,301.8622835584977,45.30640317722849
1557947628241,,,,,,,0.5638344883918762,,,
1557947628253,,41.73632220479898,,,,,,,,
1557947628264,1.0,,,,,,,,,
1557947628266,,,66.8359375,,,,,,,
1557947628267,,,66.8359375,,,,,,,
1557947628293,,37.24859274171913,66.8359375,,,,,,,
1557947628320,,,,,3.7445313930511475,-8.169015884399414,,,,
1557947628321,,,,4.917844060236728,,,-1.2701239585876465,999.8800048828125,187.23659407705054,44.21922818370844
1557947628333,,36.29264884503763,,,,,,,,
1557947628334,,,66.8359375,,,,,,,
1557947628343,,,62.724609375,,,,,,,
1557947628373,,37.591698908944124,,,,,,,,
1557947628374,,,62.724609375,,,,,,,
1557947628389,,,,3.761799875812649,4.434061527252197,-4.970362663269043,-0.37469255924224854,,262.80679060131206,42.967663663469345
1557947628413,,36.375677441591115,,,,,,,,
1557947628414,,,62.724609375,,,,,,,
1557947628415,1.0,,,,,,,,,
1557947628429,,,,,7.829039573669434,-6.421248912811279,,,,
1557947628430,,,,4.502566135732003,,,-3.1471781730651855,,282.81916290717936,41.950210001514236
1557947628453,,35.44180351823276,,,,,,,,
1557947628492,0.0,,,4.108115347649665,7.987056732177734,-8.470685958862305,-2.562992811203003,999.8899536132813,287.20027846725736,41.664134332125364
1557947628514,,34.872833518770825,,,,,,,,
1557947628521,,,0.0,,,,,,,
1557947628538,0.0,,,,,,,,,
1557947628553,,32.97209316713072,,,,,,,,
1557947628559,,,,3.0151602431395057,8.489839553833008,-7.489062786102295,1.0330979824066162,,264.605404806019,41.19162536244473
1557947628593,,34.25894760193968,,,,,,,,
1557947628601,,,200.3466796875,,,,,,,
1557947628633,,32.776648344308924,,,,,,,,
1557947628634,,,200.3466796875,,,,,,,
1557947628637,,,,3.4788864083776896,8.312667846679688,-6.4834980964660645,0.22385786473751068,,295.01494378347905,41.12347360995863
1557947628653,0.0,,,,,,,,,
1557947628673,,31.212944156202205,,,,,,,,
1557947628674,,,200.3466796875,,,,,,,
1557947628695,,,,3.514998316540593,7.1251444816589355,-4.975151062011719,,999.8800048828125,307.7218994323571,41.6358018320971
1557947628696,,,,,,,0.02753331884741783,,,
1557947628714,,33.36940210609145,,,,,,,,
1557947628743,,,,,7.876923561096191,,,,,
1557947628765,,,,4.4761574979724825,,-4.175487995147705,0.013168109580874443,,323.4413988071284,42.22890196095137
1557947628773,,34.713937924989885,,,,,,,,
1557947628782,0.0,,,,,,,,,
1557947628814,,30.97546150214373,,,,,,,,
1557947628821,,,,,7.709329605102539,-4.213795185089111,,,,
1557947628822,,,,4.119566836131973,,,-0.39384618401527405,,323.71801463832475,41.98023266373888
1557947628827,,,39.84375,,,,,,,
1557947628854,,32.754513689003424,39.84375,,,,,,,
1557947628879,,,,,8.327033042907715,-5.884947776794434,,,324.4514232759278,42.22380760953033
1557947628880,2.0,,,3.2571600756990784,,,0.04668693244457245,999.8699951171875,,
1557947628894,2.0,32.24751918933461,39.84375,,,,,,,
1557947628933,,35.81271135762994,,3.009866543216026,8.341399192810059,-4.338293552398682,1.4688427448272705,,325.5841076969369,42.211137717204856
1557947628993,,37.66926014304157,,,,,,,,
1557947629000,,,,4.181996158913701,10.529699325561523,-8.853757858276367,1.823184609413147,,316.0237075005624,41.95974432675538
1557947629003,,,107.783203125,,,,,,,
1557947629023,2.0,,,,,,,,,
1557947629033,,39.095162482910915,107.783203125,,,,,,,
1557947629073,,44.553846860673296,,,,,,,,
1557947629074,,,107.783203125,,,,,,,
1557947629078,1.0,,,4.228347373240409,11.200075149536133,-10.261548042297363,2.78086519241333,999.949951171875,314.4740810118591,42.04604789949562
1557947629113,,44.62443554311018,,,,,,,,
1557947629133,,,,6.629788377701469,9.62947940826416,-11.35809326171875,3.5422213077545166,,305.24844204708535,40.32604681123752
1557947629153,,43.955063833540194,,,,,,,,
1557947629160,1.0,,,,,,,,,
1557947629161,,,52.96875,,,,,,,
1557947629193,,37.2487887939721,,,,,,,,
1557947629194,,,52.96875,,,,,,,
1557947629207,,,,,5.281609058380127,-7.417236804962158,,,299.76691129473204,
1557947629208,,,,4.53472178084154,,,2.93888258934021,,,40.37747030773282
1557947629253,,40.494339448590395,,,,,,,,
1557947629254,,,52.96875,,4.462791919708252,-4.999093055725098,,,304.2436870692306,
1557947629255,0.0,,,4.179858166784322,,,1.4305355548858643,999.8699951171875,,40.93140688586668
1557947629266,,,52.5537109375,,,,,,,
1557947629293,,43.727232999790424,,,,,,,,
1557947629294,,,52.5537109375,,,,,,,
1557947629297,0.0,,,,,,,,,
1557947629315,,,,4.525185993228945,3.7924153804779053,-5.430049419403076,0.10893617570400238,,277.48537939185724,41.28825619149735
1557947629334,,38.84612009945025,52.5537109375,,,,,,,
1557947629374,,36.39425215142254,,,,,,,,
1557947629385,,,,4.446424938382072,3.4811692237854004,-5.439626216888428,0.707486629486084,,238.82241740627222,40.86122970963785
1557947629414,,37.17665693081042,,,,,,,,
1557947629423,,,76.9306640625,,,,,,,
1557947629432,0.0,,,,,,,,,
1557947629448,,,,,4.702212333679199,,,,,
1557947629449,1.0,,,3.9948029134592877,,-8.882488250732422,0.8463503122329712,999.8699951171875,213.31612779999182,41.17790719048722
1557947629453,,34.573356903804154,,,,,,,,
1557947629454,,,76.9306640625,,,,,,,
1557947629513,,33.27510910860664,,,,,,,,
1557947629514,,,76.9306640625,,,,,,,
1557947629525,,,,3.955555767840357,8.542511940002441,-10.170568466186523,2.40736985206604,,216.1329524552184,41.893794876249885
1557947629553,,41.354837993937934,,,,,,,,
1557947629554,,,76.9306640625,,,,,,,
1557947629565,,,86.1328125,,,,,,,
1557947629574,,,,7.343356247755199,12.100295066833496,-9.988609313964844,0.5542576909065247,,253.33820863795012,42.15258057501701
1557947629575,1.0,,,,,,,,,
1557947629593,,35.25970544155952,,,,,,,,
1557947629594,,,86.1328125,,,,,,,
1557947629633,,32.586441408437665,,,,,,,,
1557947629634,,,86.1328125,,,,,,,
1557947629636,0.0,,,7.735489828508786,10.72602367401123,-6.890512466430664,-3.309983968734741,999.9400024414063,274.50818872510786,42.699062985719
1557947629643,,,99.580078125,,,,,,,
1557947629644,,,99.580078125,,,,,,,
1557947629674,,33.22613341561082,99.580078125,,,,,,,
1557947629705,,,,5.338680785312587,8.576030731201172,-4.367023944854736,-0.5231330990791321,,300.90299714994774,42.575815013133855
1557947629706,0.0,,,,,,,,,
1557947629733,,32.41751875223248,99.580078125,,,,,,,
1557947629769,,,,,7.465120792388916,-3.2369606494903564,,,,
1557947629773,,29.88380797550462,,,,,,,,
1557947629813,,30.148081093710818,,,,,,,,
1557947629814,,,0.0,,,,,,,
1557947629827,,,,,6.746860504150391,-3.5625722408294678,,,299.5849277344862,
1557947629828,1.0,,,4.276999932671529,,,0.5111620426177979,999.949951171875,,46.49215135765565
1557947629853,,32.61049759375565,,,,,,,,
1557947629893,,35.363594242454695,,,,,,,,
1557947629896,,,,2.254091357690703,8.446743965148926,-6.157886981964111,0.7745242714881897,,296.1496840914283,46.850613176614026
1557947629903,,,44.1357421875,,,,,,,
1557947629933,,32.387591432083724,,,,,,,,
1557947629934,,,44.1357421875,,,,,,,
1557947629944,,,,,11.267112731933594,-10.754754066467285,,,,
1557947629945,1.0,,,6.198148254000097,,,2.589329242706299,,290.80749261323786,47.84401890874105
1557947629993,,33.48405269867486,,,,,,,,
1557947629994,,,44.1357421875,,,,,,,
1557947630012,,,,6.413484684406687,11.171344757080078,-9.739612579345703,,999.9199829101563,292.9223923878406,48.04393986445731
1557947630013,,,,,,,4.72495698928833,,,
1557947630033,,36.347094909551636,,,,,,,,
1557947630067,1.0,,,,,,,,,
1557947630073,,35.60246158717011,,,,,,,,
1557947630081,,,49.677734375,,,,,,,
1557947630085,,,,6.246990242105468,8.341399192810059,-12.105083465576172,2.4791958332061768,,275.21036632273103,50.11586534785376
1557947630113,,37.63650348756774,,,,,,,,
1557947630114,,,49.677734375,,,,,,,
1557947630154,,33.34193339353519,49.677734375,,,,,,,
1557947630156,,,,2.8214695636054716,5.631162166595459,-6.18182897567749,2.7760767936706543,,280.25375751530095,50.483563059278595
1557947630179,1.0,,,,,,,,,
1557947630204,,,,,5.832275390625,,,,,
1557947630205,2.0,,,2.7396012415620916,,-5.3582234382629395,0.8655039072036743,999.9400024414063,289.34185696075815,51.905106705964826
1557947630213,,32.59570985054896,49.677734375,,,,,,,
1557947630223,,,73.232421875,,,,,,,
1557947630253,,32.20425054190323,73.232421875,,,,,,,
1557947630272,,,,,3.8498764038085938,-5.023035049438477,,,273.55948910977145,
1557947630273,,,,4.813567204240149,,,-0.3411737382411957,,267.73511359693475,51.543380241228796
1557947630293,,31.40102273715099,,,,,,,,
1557947630294,,,73.232421875,,,,,,,
1557947630314,2.0,,,,,,,,,
1557947630330,,,,3.861504588824693,4.022258758544922,-5.942408561706543,0.99479079246521,,244.78804123114475,52.03969619078802
1557947630333,,37.78135077136949,,,,,,,,
1557947630373,,41.237008634540764,,,,,,,,
1557947630381,,,437.3681640625,,,,,,,
1557947630398,4.0,,,3.2924866600606366,3.7445313930511475,-7.920019149780273,0.3579331636428833,999.949951171875,229.12397225658265,52.456458154704194
1557947630413,,33.52335600039811,,,,,,,,
1557947630414,,,437.3681640625,,,,,,,
1557947630447,,,,3.3150880887624816,5.616796970367432,-10.60152530670166,,,216.89016088698435,52.83739092138515
1557947630448,4.0,,,,,,1.96683669090271,,,
1557947630473,,31.66213115928468,437.3681640625,,,,,,,
1557947630513,,37.54943640837497,,,,,,,,
1557947630514,,,,8.176407383155055,10.759542465209961,-13.072340965270996,3.8774096965789795,,224.4595131289759,52.9208837891506
1557947630553,,39.09139959828821,,,,,,,,
1557947630561,,,391.03515625,,,,,,,
1557947630581,,,,,10.429142951965332,,,,,
1557947630582,2.0,,,8.677862076696538,,-11.027692794799805,-2.7688941955566406,1000.0099487304688,232.8180664088057,52.98197787649883
1557947630593,,32.41121638365485,391.03515625,,,,,,,
1557947630633,,32.7250202911669,,,,,,,,
1557947630634,,,391.03515625,,,,,,,
1557947630651,,,,5.13441384243334,7.7428483963012695,-6.92881965637207,1.6699557304382324,,254.25322859048924,52.386448919938125
1557947630674,,30.378755430217524,,,,,,,,
1557947630699,,,,,7.599195957183838,,,,,
1557947630700,,,,7.495198302187296,,-4.4723687171936035,-1.380257248878479,,292.2380142631945,52.834553018605
1557947630725,2.0,,,,,,,,,
1557947630734,,29.934353119380916,0.0,,,,,,,
1557947630765,,,,,6.335057735443115,,,,,
1557947630766,,,,5.776652059358654,,-4.54419469833374,0.2861070930957794,1000.0299682617188,288.8873625130072,53.28048346666698
1557947630773,,31.22266747838939,,,,,,,,
1557947630814,,29.640129805578304,0.0,,,,,,,
1557947630849,,,,,6.517016887664795,-6.291962146759033,,,287.04066377654334,
1557947630850,,,,3.3662888462843843,,,1.191115379333496,,,52.5530206501763
1557947630852,2.0,,,,,,,,,
1557947630854,,32.15614846966319,,,,,,,,
1557947630893,,33.068365633324866,,,,,,,,
1557947630897,,,,,8.93037223815918,-8.288725852966309,,,286.22205194413897,53.5933787839618
1557947630898,,,,4.266392230108808,,,3.044227361679077,,,
1557947630953,,31.549804651891293,,,,,,,,
1557947630960,,,225.0830078125,,9.390059471130371,-12.856863021850586,,,,
1557947630961,3.0,,,6.817553404545367,,,3.6284127235412598,1000.0199584960938,278.65439358906156,53.79999982202807
1557947630970,3.0,,,,,,,,,
1557947630993,,34.082413790285656,225.0830078125,,,,,,,
1557947631019,,,,9.344352983391769,11.463438034057617,-13.55118179321289,4.978742599487305,,282.9770495600334,54.81550875421399
1557947631033,,45.50598759876539,225.0830078125,,,,,,,
1557947631074,,38.73369774499967,,,,,,,,
1557947631080,,,,,7.508216381072998,,,,,
1557947631081,,,,9.292268422802167,,-14.302961349487305,3.317166566848755,,269.6813828311191,55.391786394735455
1557947631088,3.0,,,,,,,,,
1557947631114,,36.01171607066639,,,,,,,,
1557947631124,,,65.48828125,,,,,,,
1557947631145,2.0,,,11.740613069139865,5.286397457122803,-8.44195556640625,2.0482394695281982,1000.0399780273438,249.14543554423528,55.958735555006626
1557947631153,,42.767378658544956,,,,,,,,
1557947631154,,,65.48828125,,,,,,,
1557947631206,2.0,,,,,,,,,
1557947631207,,,,,2.8347349166870117,,,,,
1557947631210,,,,,,-6.311115741729736,,,251.97015589814242,
1557947631211,,,,8.003683672631182,,,0.8367735147476196,,,56.22881899254717
1557947631213,,39.69147283353544,65.48828125,,,,,,,
1557947631253,,32.810186820856856,,,,,,,,
1557947631287,,,,7.766053339544884,2.935291290283203,-5.1331682205200195,0.6548141837120056,,245.00431234102405,56.84021603043248
1557947631293,,31.434368800729956,,,,,,,,
1557947631304,,,500.185546875,,,,,,,
1557947631333,,36.60469406740467,500.185546875,,,,,,,
1557947631349,,,,,1.1348515748977661,-5.568912982940674,,,,
1557947631350,6.0,,,8.181325666458006,,,-0.3315969407558441,1000.0399780273438,227.52092685838068,55.710413006025576
1557947631374,,37.35631871363607,500.185546875,,,,,,,
1557947631397,,,,9.874481573861944,3.026270866394043,-7.55131196975708,-0.27892449498176575,,242.06974888488475,55.52026813479439
1557947631414,,34.73888537162888,,,,,,,,
1557947631456,6.0,,,,,,,,,
1557947631460,,,,9.615585280451967,5.990292549133301,-11.425130844116211,1.6268600225448608,,218.9271418635356,54.37922506995932
1557947631473,,34.3889612367442,,,,,,,,
1557947631482,,,60.2490234375,,,,,,,
1557947631513,,32.95026988430345,,,,,,,,
1557947631514,,,60.2490234375,,,,,,,
1557947631527,12.0,,,7.1614683356937725,13.718775749206543,-15.021221160888672,,1000.0599975585938,217.52863331021877,54.31914844693802
1557947631528,,,,,,,2.3355438709259033,,,
1557947631553,,37.58655396609561,,,,,,,,
1557947631554,,,60.2490234375,,,,,,,
1557947631577,12.0,,,,,,,,,
1557947631584,,,,7.0100271070448725,12.066776275634766,-11.66455078125,-0.20231004059314728,,243.4570559279627,53.835492291733345
1557947631593,,40.38743527303393,,,,,,,,
1557947631594,,,60.2490234375,,,,,,,
1557947631600,,,43.06640625,,,,,,,
1557947631601,,,43.06640625,,,,,,,
1557947631633,,33.246875949202,,,,,,,,
1557947631634,,,43.06640625,,,,,,,
1557947631647,,,,,11.065999984741211,,,,,
1557947631648,,,,6.276026133495646,,-5.980715751647949,-0.5662286877632141,,266.20625771349745,53.37134134943917
1557947631691,12.0,,,,,,,,,
1557947631693,,32.93621134338103,43.06640625,,,,,,,
1557947631702,,,64.599609375,,,,,,,
1557947631715,2.0,,,7.634796603128506,7.575253963470459,-4.994304656982422,-0.1735796183347702,1000.0299682617188,288.6144964556652,53.72429543765863
1557947631733,,31.737122706941058,64.599609375,,,,,,,
1557947631773,,32.34426980649346,64.599609375,,,,,,,
1557947631778,,,,6.746015715023479,6.933608055114746,-4.165910720825195,2.6563668251037598,,281.19242358274664,54.3265141437178
1557947631783,,,61.767578125,,,,,,,
1557947631809,2.0,,,,,,,,,
1557947631813,,31.863367251901025,61.767578125,,,,,,,
1557947631842,,,,,6.6846113204956055,,,,,
1557947631843,,,,5.754595371475244,,-4.946420669555664,1.6172832250595093,,285.33664769184105,54.066995290156555
1557947631853,,33.25803763357082,,,,,,,,
1557947631854,,,61.767578125,,,,,,,
1557947631863,,,59.5458984375,,,,,,,
1557947631893,,33.34123443642917,,,,,,,,
1557947631894,,,59.5458984375,,,,,,,
1557947631898,,,,,7.0772600173950195,,,,,
1557947631899,3.0,,,5.613122904647268,,-5.0469770431518555,1.8997989892959595,1000.0899658203125,295.91325026311915,55.15342177253336
1557947631929,3.0,,,,,,,,,
1557947631953,,33.59912618864052,59.5458984375,,,,,,,
1557947631962,,,75.3662109375,,,,,,,
1557947631975,,,,5.873400856060039,9.232041358947754,-8.609549522399902,2.670732021331787,,291.10935965379576,54.662418379200396
1557947631993,,38.0949188589495,,,,,,,,
1557947631994,,,75.3662109375,,,,,,,
1557947632033,,45.68833967849479,75.3662109375,,,,,,,
1557947632039,,,0.0,,,,,,,
1557947632044,,,,,11.166556358337402,-11.884817123413086,,,287.23852069642027,
1557947632045,,,,7.916607612255756,,,3.714603900909424,,,53.83140453744726
1557947632068,3.0,,,,,,,,,
1557947632073,,47.40396021139141,,,,,,,,
1557947632095,1.0,,,7.361444202620231,10.577583312988281,-14.250288963317871,4.681861400604248,1000.0799560546875,278.92480077830237,52.964517287297554
1557947632113,,46.72298081014774,,,,,,,,
1557947632123,,,85.1416015625,,,,,,,
1557947632153,,47.095690318457045,,,,,,,,
1557947632154,,,85.1416015625,,,,,,,
1557947632155,,,,5.929369690511615,7.350199222564697,-10.721235275268555,,,266.7301400530266,51.20683461072873
1557947632156,,,,,,,3.551798105239868,,,
1557947632197,1.0,,,,,,,,,
1557947632214,,41.60896839867868,85.1416015625,,,,,,,
1557947632224,,,,,4.845864295959473,,,,,
1557947632225,,,,6.145763780448152,,-9.165003776550293,1.8375498056411743,,251.3592637787765,49.29908790905317
1557947632253,,41.264794423387634,,,,,,,,
1557947632287,4.0,,,6.8447869616975945,3.2752678394317627,-5.200206279754639,1.6699557304382324,1000.0399780273438,220.8231477356178,48.060900971360915
1557947632293,,36.157957406047075,,,,,,,,
1557947632329,4.0,,,,,,,,,
1557947632333,,36.86835098518432,,,,,,,,
1557947632342,,,96.9287109375,,,,,,,
1557947632356,,,,5.608362813175862,3.8594532012939453,-4.443638324737549,-0.3315969407558441,,257.5534120728993,47.42583855434083
1557947632373,,34.08830586426933,,,,,,,,
1557947632374,,,96.9287109375,,,,,,,
1557947632415,,,,6.43582279615253,3.0358476638793945,-4.213795185089111,0.5542576909065247,,228.41590020570578,47.50694744740896
1557947632433,,36.10583316504891,96.9287109375,,,,,,,
1557947632441,,,68.9453125,,,,,,,
1557947632442,,,68.9453125,,,,,,,
1557947632464,4.0,,,,,,,,,
1557947632473,,36.05077612873367,68.9453125,,,,,,,
1557947632490,,,,6.42595043945197,4.6734819412231445,-5.592854976654053,,,220.37762815643617,46.625529446906846
1557947632491,5.0,,,,,,-0.04908113554120064,1000.0199584960938,,
1557947632513,,32.883363403625324,68.9453125,,,,,,,
1557947632533,,,,6.47690676152666,6.995857238769531,-9.787496566772461,1.3443442583084106,,219.69842048499174,46.34285464347277
1557947632553,,31.540844686280124,,,,,,,,
1557947632593,,33.222504223647185,,,,,,,,
1557947632594,,,0.0,,,,,,,
1557947632598,5.0,,,6.936958360577546,11.104307174682617,-11.554417610168457,1.0570400953292847,,227.39500549084232,45.736311068828385
1557947632633,,40.263757931631474,,,,,,,,
1557947632674,1.0,,,4.5677608311535005,10.745177268981934,-9.500192642211914,0.6979097723960876,1000.0799560546875,232.2052754968505,44.69116487000256
1557947632693,,39.26527142231616,,,,,,,,
1557947632701,,,72.7978515625,,,,,,,
1557947632723,,,,4.746553073838285,9.615114212036133,-6.224924564361572,-2.0697872638702393,,258.91354862345895,43.97647167386863
1557947632724,1.0,,,,,,,,,
1557947632733,,37.678988898108315,72.7978515625,,,,,,,
1557947632774,,36.12230816464873,72.7978515625,,,,,,,
1557947632782,,,50.986328125,,,,,,,
1557947632787,,,,3.5567210658119137,7.264008045196533,-6.095637321472168,0.2190694510936737,,250.19407448750735,43.86125864580846
1557947632813,,37.065884008328965,,,,,,,,
1557947632814,,,50.986328125,,,,,,,
1557947632844,1.0,,,,,,,,,
1557947632853,,31.232542795004548,,,,,,,,
1557947632854,,,50.986328125,,,,,,,
1557947632861,,,,4.081707663236077,7.311892032623291,-4.247313976287842,2.8862102031707764,1000.0299682617188,269.7681398939566,43.627628888600015
1557947632862,,,53.8330078125,,,,,,,
1557947632893,,30.72353693602789,,,,,,,,
1557947632894,,,53.8330078125,,,,,,,
1557947632911,,,,5.722310609762425,8.2312650680542,-5.171475887298584,0.243011474609375,,278.12226038101505,43.476201165108996
1557947632953,,31.823122432623514,,,,,,,,
1557947632954,,,53.8330078125,,,,,,,
1557947632959,1.0,,,,,,,,,
1557947632976,,,,,7.536946773529053,-5.114014625549316,,,,
1557947632993,,42.1611712667073,,,,,,,,
1557947632994,,,53.8330078125,,,,,,,
1557947633034,,42.32085733762324,,,,,,,,
1557947633043,,,,,10.481815338134766,,,,,
1557947633044,,,,5.096155827138485,,-9.96945571899414,2.4839842319488525,1000.0499877929688,293.253164788966,42.63003780183455
1557947633073,,40.73703289503658,,,,,,,,
1557947633079,1.0,,,,,,,,,
1557947633086,,,251.46609933035714,,,,,,,
1557947633111,,,,7.105556258910005,9.35654067993164,-11.549629211425781,5.112817764282227,,262.09362322931435,42.34347777422009
1557947633113,,43.00458805710339,,,,,,,,
1557947633114,,,251.46609933035714,,,,,,,
1557947633173,,45.821613440508145,251.46609933035714,,,,,,,
1557947633182,,,,8.060625671637514,12.090718269348145,-11.200075149536133,4.528632640838623,,280.1048798819622,42.276235422302385
1557947633204,1.0,,,,,,,,,
1557947633213,,43.59077650907588,,,,,,,,
1557947633225,,,,7.910203510661286,7.848193168640137,-10.931924819946289,3.757699489593506,1000.0399780273438,275.96145490500066,41.9167038708946
1557947633253,,37.93326437128932,,,,,,,,
1557947633263,,,72.265625,,,,,,,
1557947633291,,,,,5.233725070953369,,,,,
1557947633292,,,,4.336346361283269,,-7.948749542236328,2.8095955848693848,,233.60401627659905,42.441843658763325
1557947633293,,32.741756557424175,,,,,,,,
1557947633294,,,72.265625,,,,,,,
1557947633333,,34.09516619178982,,,,,,,,
1557947633334,,,72.265625,,,,,,,
1557947633340,1.0,,,,,,,,,
1557947633345,,,68.7646484375,,,,,,,
1557947633356,,,,,4.185064792633057,-7.005434036254883,,,211.75112655546673,
1557947633357,,,,5.4192700903136,,,2.3546974658966064,,191.49599566611892,42.77043475743743
1557947633373,,31.40088020685468,,,,,,,,
1557947633374,,,68.7646484375,,,,,,,
1557947633427,,,,6.6606685676306,3.9887399673461914,-6.14831018447876,,,182.19274526180618,43.065300697083856
1557947633428,3.0,,,,,,1.6508020162582397,1000.0499877929688,,
1557947633433,,41.81380131988843,,,,,,,,
1557947633434,,,68.7646484375,,,,,,,
1557947633441,,,55.5029296875,,,,,,,
1557947633442,,,55.5029296875,,,,,,,
1557947633473,3.0,,,,,,,,,
1557947633474,,38.48475953065966,55.5029296875,,,,,,,
1557947633488,,,,5.844545687599131,5.396530628204346,-7.292738437652588,1.382651448249817,,206.06523995824125,43.19641156834203
1557947633514,,36.946231570777854,55.5029296875,,,,,,,
1557947633538,,,,7.184282992695974,6.110002517700195,-8.111555099487305,3.7002387046813965,,174.28861448537,42.95974976996409
1557947633553,,40.446761296912506,,,,,,,,
1557947633593,,34.31286934825038,,,,,,,,
1557947633601,,,47.197265625,,,,,,,
1557947633607,,,,,8.65743350982666,-9.375694274902344,,,,
1557947633608,6.0,,,6.604981894572968,,,1.382651448249817,1000.0700073242188,165.10695510866196,42.40518777707435
1557947633633,,35.872170881495634,,,,,,,,
1557947633634,,,47.197265625,,,,,,,
1557947633676,,,,,7.096413612365723,,,,,
1557947633677,,,,2.436322539156305,,-6.593631267547607,0.5877765417098999,,202.62114439001903,41.99392747076488
1557947633693,,36.744723225281376,,,,,,,,
1557947633694,,,47.197265625,,,,,,,
1557947633721,6.0,,,,,,,,,
1557947633733,,36.92385015612785,,,,,,,,
1557947633734,,,47.197265625,,,,,,,
1557947633737,,,,,8.738836288452148,,,,,
1557947633738,,,,3.391902981585236,,-4.553771495819092,-1.4281413555145264,,231.47650797278845,42.14427535368752
1557947633742,,,53.544921875,,,,,,,
1557947633773,,35.2915487588813,,,,,,,,
1557947633774,,,53.544921875,,,,,,,
1557947633791,1.0,,,3.8754870200975176,9.452308654785156,-6.828263282775879,0.45848962664604187,1000.0799560546875,243.99934562730505,41.88197850850565
1557947633813,,31.76984564102982,,,,,,,,
1557947633814,,,53.544921875,,,,,,,
1557947633821,,,0.0,,,,,,,
1557947633837,1.0,,,,,,,,,
1557947633853,,31.477717825467842,,,8.389283180236816,,,,,
1557947633854,,,,2.530755171269627,,-7.297526836395264,2.005143880844116,,190.84167720401,41.97534916671745
1557947633913,,31.267875030185806,,,,,,,,
1557947633914,,,0.0,,,,,,,
1557947633921,,,,1.3244921646750438,6.7277069091796875,-6.799532890319824,1.622071623802185,,195.32364733737234,41.61117632276934
1557947633953,,31.360207803074655,,,,,,,,
1557947633964,1.0,,,,,,,,,
1557947633990,,,,,6.847416877746582,-6.636727333068848,,,186.76462800540264,
1557947633991,,,,1.189346584315388,,,1.2198457717895508,1000.0899658203125,195.51272063397664,41.072983771796686
1557947633994,,31.46041265054923,0.0,,,,,,,
1557947634033,,31.544892746923875,,,,,,,,
1557947634060,,,,1.5861087950856405,7.55131196975708,-6.5265936851501465,,,218.77155015424273,40.68550118829494
1557947634061,,,,,,,0.1711854189634323,,,
1557947634073,,37.93779365725,,,,,,,,
1557947634080,,,40.48828125,,,,,,,
1557947634081,,,40.48828125,,,,,,,
1557947634104,1.0,,,,,,,,,
1557947634113,,34.351997958504334,,,,,,,,
1557947634114,,,40.48828125,,,,,,,
1557947634125,,,,1.0951652090430313,7.3693528175354,-6.3063273429870605,0.707486629486084,,204.32050911589658,40.28535712446624
1557947634173,,32.58106634787838,,,,,,,,
1557947634174,,,40.48828125,,,,,,,
1557947634175,2.0,,,1.0688862451633885,6.430825710296631,-7.038952827453613,2.895787000656128,1000.1099853515625,180.9748542309012,40.104613513560984
1557947634213,,32.432019122339426,,,,,,,,
1557947634218,2.0,,,,,,,,,
1557947634234,,,,4.170001234241916,5.789179801940918,-6.904877662658691,3.2405519485473633,,131.78247580854807,39.234678689927556
1557947634254,,32.26384127319032,,,,,,,,
1557947634263,,,73.5546875,,,,,,,
1557947634293,,35.004444615423836,,,,,,,,
1557947634294,,,73.5546875,,,,,,,
1557947634300,,,,,6.761225700378418,-8.451532363891602,,,,
1557947634301,,,,4.026798599894379,,,2.3546974658966064,,143.25239882137214,38.572140403859926
1557947634333,,34.26559378093825,,,,,,,,
1557947634334,2.0,,73.5546875,,,,,,,
1557947634370,,,,,5.856217384338379,,,,,
1557947634371,3.0,,,4.263404352005703,,-9.11233139038086,3.4991257190704346,1000.0899658203125,136.18909529498686,38.029593890075816
1557947634376,,33.187932876633724,73.5546875,,,,,,,
1557947634384,,,55.859375,,,,,,,
1557947634424,,,,3.9477982046157925,7.086836814880371,-6.382941722869873,3.494337320327759,,116.38191553216507,37.25104180178456
1557947634433,,37.10262052923513,,,,,,,,
1557947634434,,,55.859375,,,,,,,
1557947634453,3.0,,,,,,,,,
1557947634474,,37.10374348927966,55.859375,,,,,,,
1557947634483,,,77.763671875,,,,,,,
1557947634495,,,,3.195998437654307,9.040505409240723,-8.20732307434082,1.6747441291809082,,140.31264442146363,36.69809262856751
1557947634513,,38.16912114725207,,,,,,,,
1557947634514,,,77.763671875,,,,,,,
1557947634553,,34.220899741264724,,,,,,,,
1557947634554,,,77.763671875,,,,,,,
1557947634560,,,43.06640625,,,,,,,
1557947634561,,,,,7.838616371154785,-8.073247909545898,,,,
1557947634562,1.0,,,3.279245400038972,,,2.1344308853149414,1000.0899658203125,128.6792203402878,36.3766422902513
1557947634588,1.0,,,,,,,,,
1557947634593,,31.353587875349188,,,,,,,,
1557947634594,,,43.06640625,,,,,,,
1557947634632,,,,,7.441178798675537,,,,,
1557947634633,,,,,,-6.588842868804932,,,116.0677268303445,34.72837496396112
1557947634634,,,,2.9987470871536335,,,2.3930046558380127,,,
1557947634653,,29.675387138230857,43.06640625,,,,,,,
1557947634654,,,0.0,,,,,,,
1557947634680,,,,3.5165553239548992,6.3302693367004395,-7.005434036254883,2.3020248413085938,,114.39342889872091,33.26800286419586
1557947634693,,28.657484452541574,,,,,,,,
1557947634727,1.0,,,,,,,,,
1557947634733,,28.53863549784659,,,,,,,,
1557947634734,,,0.0,,,,,,,
1557947634747,,,,,5.453991413116455,-6.617573261260986,,,116.88377051162092,32.37174749377819
1557947634748,,,,4.4004339697709876,,,2.0673930644989014,1000.0700073242188,,
1557947634773,,31.060399562545502,,,,,,,,
1557947634813,,41.329476546939006,,,,,,,,
1557947634822,,,55.732421875,,,,,,,
1557947634823,,,,4.832273608261193,4.960785865783691,-5.980715751647949,1.459265947341919,,125.1412779728696,31.67222822085523
1557947634853,,29.141436408820613,,,,,,,,
1557947634854,,,55.732421875,,,,,,,
1557947634868,,,,,4.055777549743652,,,,,
1557947634869,1.0,,,5.554913437080458,,-5.51624059677124,0.9900023937225342,,139.68033282886054,31.785846997542752
1557947634914,,30.46718456743994,55.732421875,,,,,,,
1557947634924,,,45.0830078125,,,,,,,
1557947634936,,,,5.51292115417041,3.9264907836914063,-6.009446144104004,,1000.0999755859375,146.6167997423587,31.826089598229512
1557947634937,,,,,,,2.0626046657562256,,,
1557947634954,,28.077333438558362,45.0830078125,,,,,,,
1557947634993,,37.72323235065113,,,,,,,,
1557947634994,,,45.0830078125,,,,,,,
1557947635009,,,,,4.553771495819092,,,,,
1557947635010,1.0,,,5.299143977581814,,-6.335057735443115,1.8088194131851196,,136.80467292412342,31.452503513008217
1557947635033,,38.43772228025597,,,,,,,,
1557947635059,,,,,8.322244644165039,-8.686163902282715,,,,
1557947635060,,,,3.313828112107174,,,-0.4704606235027313,,170.09453682552368,32.11759720325942
1557947635074,,37.58593053174576,,,,,,,,
1557947635113,,35.71272413962398,,,,,,,,
1557947635116,0.0,,,2.569812482531271,9.892841339111328,-9.66299819946289,1.7561469078063965,1000.0799560546875,169.38919685031482,32.43840389572592
1557947635122,,,556.89453125,,,,,,,
1557947635144,0.0,,,,,,,,,
1557947635174,,35.340520978665715,556.89453125,,,,,,,
1557947635194,,,,8.198672061485162,13.934253692626953,-10.500968933105469,,,157.68099585810566,32.80564032126371
1557947635195,,,,,,,0.3866635859012604,,,
1557947635214,,43.706505678226584,556.89453125,,,,,,,
1557947635243,,,,,9.658209800720215,-7.5417351722717285,,,153.19021478071397,
1557947635244,,,,3.826164272859663,,,0.03711012750864029,,,32.9856028246529
1557947635254,,38.328764238998886,,,,,,,,
1557947635262,0.0,,,,,,,,,
1557947635294,,34.67661433474463,,,,,,,,
1557947635302,,,74.9658203125,,,,,,,
1557947635313,,,,,6.92881965637207,-5.200206279754639,,,,
1557947635314,4.0,,,3.9721827041924747,,,0.1759738177061081,1000.0899658203125,120.80331554796777,33.3367667976826
1557947635333,,31.877072182575365,,,,,,,,
1557947635334,,,74.9658203125,,,,,,,
1557947635389,,,,,5.152322292327881,,,,,
1557947635390,4.0,,,2.8940533077389343,,-4.898536682128906,0.7218518257141113,,121.07116824645897,33.36959820755553
1557947635393,,29.742827988438844,,,,,,,,
1557947635394,,,74.9658203125,,,,,,,
1557947635401,,,64.599609375,,,,,,,
1557947635433,,30.836002161300982,,,,,,,,
1557947635434,,,64.599609375,,,,,,,
1557947635439,,,,,5.339069843292236,-4.9368438720703125,,,,
1557947635440,,,,2.518508017300963,,,1.622071623802185,,100.65640900601869,33.65605600058523
1557947635473,,30.53130885539323,64.599609375,,,,,,,
1557947635474,,,0.0,,,,,,,
1557947635512,,,,,4.649539470672607,,,,,
1557947635513,2.0,,,3.165346238420377,,-4.845864295959473,2.278082847595215,1000.1300048828125,97.4771335322962,33.64580294209499
1557947635514,,29.8894429283131,,,,,,,,
1557947635515,2.0,,,,,,,,,
1557947635554,,30.298245285924384,0.0,,,,,,,
1557947635559,,,,2.21771097704179,5.410895824432373,-5.228936672210693,1.0091559886932373,,122.05589027947806,33.906636466219
1557947635593,,35.75901517194475,,,,,,,,
1557947635635,,,,1.0629980939307937,6.081272125244141,-6.3063273429870605,1.1863269805908203,,130.34767162998185,33.75529686341962
1557947635652,2.0,,,,,,,,,
1557947635654,,39.62627446905182,,,,,,,,
1557947635666,,,54.7021484375,,,,,,,
1557947635694,,37.97979057177173,54.7021484375,,,,,,,
1557947635706,,,,,9.002198219299316,-8.465897560119629,,,,
1557947635707,1.0,,,1.0747078077078636,,,1.4401123523712158,1000.0999755859375,133.27000904750682,33.75529686341962
1557947635734,,39.49472953848998,54.7021484375,,,,,,,
1557947635756,,,,5.081563589406669,9.619902610778809,-10.204087257385254,3.551798105239868,,119.24107369986743,33.75529686341962
1557947635773,,37.76460208077911,,,,,,,,
1557947635774,,,54.7021484375,,,,,,,
1557947635781,1.0,,63.349609375,,,,,,,
1557947635813,,35.78331738495136,,5.371381739438325,10.050858497619629,-10.35252857208252,3.1495723724365234,,122.45351657219953,33.5554774444996
1557947635814,,,63.349609375,,,,,,,
1557947635853,,33.856741268102155,,,,,,,,
1557947635854,,,63.349609375,,,,,,,
1557947635862,,,38.06640625,,,,,,,
1557947635879,,,,5.510835551137385,7.0341644287109375,-7.55131196975708,,1000.1199951171875,124.76132820972009,33.15705181967972
1557947635880,0.0,,,,,,2.756923198699951,,,
1557947635901,0.0,,,,,,,,,
1557947635913,,33.92626433290454,,,,,,,,
1557947635914,,,38.06640625,,,,,,,
1557947635947,,,,,4.611232280731201,-5.750872611999512,,,,
1557947635948,,,,3.4014211601643036,,,1.5119383335113525,,129.74925143604034,33.085647649330866
1557947635954,,32.93691650256147,38.06640625,,,,,,,
1557947635994,,33.91911979361679,,,,,,,,
1557947636005,,,,,3.9456443786621094,,,,,
1557947636006,,,,4.552409261504123,,-3.624821424484253,1.3491326570510864,,117.82531208870716,32.920055677985665
1557947636031,0.0,,,,,,,,,
1557947636034,,35.08857210051015,,,,,,,,
1557947636046,,,582.099609375,,,,,,,
1557947636073,,33.41125882833114,,,,,,,,
1557947636074,,,582.099609375,,,,,,,
1557947636075,,,,,4.151545524597168,-4.630385875701904,,,121.79676656274611,33.51268525718017
1557947636077,1.0,,,4.554943777631379,,,-0.010773907415568829,1000.1300048828125,,
1557947636133,,33.063618000376785,,,,,,,,
1557947636134,,,582.099609375,,,,,,,
1557947636137,,,,3.1574234999860504,5.142745018005371,-5.937620162963867,,,133.04175778582334,34.33555086573062
1557947636138,,,,,,,1.3539210557937622,,,
1557947636155,1.0,,,,,,,,,
1557947636173,,36.73139175183172,,,,,,,,
1557947636193,,,,,7.12035608291626,-10.204087257385254,,,,
1557947636196,,,,,,,,,131.11464723226092,34.89341061341819
1557947636197,,,,5.214096278651916,,,2.589329242706299,,,
1557947636213,,36.74263728143507,,,,,,,,
1557947636224,,,98.203125,,,,,,,
1557947636252,,,,,10.007762908935547,-12.48815631866455,,,,
1557947636253,,35.58571707217591,98.203125,7.675541702687016,,,3.556586742401123,1000.1300048828125,130.16007365423826,35.20298282816387
1557947636266,1.0,,,,,,,,,
1557947636293,,33.306399095073346,,,,,,,,
1557947636294,,,98.203125,,,,,,,
1557947636305,,,75.185546875,,,,,,,
1557947636326,,,,7.529815917177659,9.461885452270508,-12.1194486618042,5.093664169311523,,122.04134197654594,35.22087465310382
1557947636333,,36.760103443553,,,,,,,,
1557947636334,,,75.185546875,,,,,,,
1557947636393,,33.750773971464994,,,,,,,,
1557947636394,,,75.185546875,,,,,,,
1557947636397,,,,9.694230036898277,8.518569946289063,-7.479485988616943,-6.795941352844238,,222.00933302839553,35.495774589842526
1557947636398,1.0,,,,,,,,,
1557947636401,,,64.599609375,,,,,,,
1557947636433,,31.236539729525962,,,,,,,,
1557947636434,,,64.599609375,,,,,,,
1557947636445,,,,,6.1530985832214355,,,,,
1557947636446,2.0,,,10.384620342633838,,-4.434061527252197,0.05147533491253853,1000.1699829101563,236.14328936471304,35.93034884692493
1557947636473,,29.743910226273428,,,,,,,,
1557947636474,,,64.599609375,,,,,,,
1557947636513,,30.347410174093717,,4.246880901408359,5.166687488555908,-4.802768707275391,,,132.22550919887178,36.73377331304629
1557947636514,,,64.599609375,,,,0.5398924946784973,,,
1557947636530,2.0,,,,,,,,,
1557947636553,,28.60453740611996,,,,,,,,
1557947636582,,,,,5.4444146156311035,-5.348646640777588,,,,
1557947636583,,,,4.1244531904827575,,,1.258152961730957,,105.99999384279982,37.573795100047704
1557947636613,,30.16741580210938,,,,,,,,
1557947636614,,,0.0,,,,,,,
1557947636631,,,,3.173342510926041,5.348646640777588,-6.469132900238037,2.1775264739990234,1000.1199951171875,98.2198961139676,37.948781359309116
1557947636646,2.0,,,,,,,,,
1557947636653,,29.887070963302197,,,,,,,,
1557947636693,,32.71635441913248,,,,,,,,
1557947636694,,,0.0,,,,,,,
1557947636700,,,,,5.343858242034912,-5.2049946784973145,,,87.38508507130632,
1557947636701,,,,2.9411896604354406,,,2.1057004928588867,,86.72535026918558,38.070723698127544
1557947636733,,33.63380141543533,,,,,,,,
1557947636764,,,,3.551300782992302,8.389283180236816,-8.068459510803223,0.5638344883918762,,109.01634881425002,37.96393081335103
1557947636765,2.0,,,,,,,,,
1557947636773,,33.69328940207788,,,,,,,,
1557947636785,,,44.16015625,,,,,,,
1557947636813,,31.76341509455707,,,,,,,,
1557947636814,,,44.16015625,,,,,,,
1557947636836,1.0,,,2.8942037337902713,10.376470565795898,-11.860875129699707,2.8383262157440186,1000.1399536132813,101.96948555319699,37.88786100280403
1557947636873,,33.955976513654086,44.16015625,,,,,,,
1557947636883,,,63.837890625,,,,,,,
1557947636890,1.0,,,7.293286766633516,10.51054573059082,-12.023680686950684,4.796782970428467,,89.2683048292622,38.04484268857832
1557947636913,,35.351253312371256,63.837890625,,,,,,,
1557947636949,,,,6.260695194727903,7.340622425079346,-11.228805541992188,4.4520182609558105,,91.03159329558184,37.36054187696173
1557947636953,,34.29150975532859,63.837890625,,,,,,,
1557947636993,,33.91086337210761,,,,,,,,
1557947637020,1.0,,,7.718552065639658,4.2760443687438965,-6.3973069190979,2.182314872741699,1000.1499633789063,95.56745362149564,37.32197771860767
1557947637034,,31.67028878763105,,,,,,,,
1557947637041,,,99.5654296875,,,,,,,
1557947637073,,29.824396685553868,,,,,,,,
1557947637074,,,99.5654296875,,,,,,,
1557947637086,,,,5.2911542308926105,3.687070608139038,-4.898536682128906,0.5159504413604736,,105.5670349815019,37.765195436319196
1557947637133,,33.50947346873373,,,,,,,,
1557947637134,,,99.5654296875,,,,,,,
1557947637136,,,,,2.983175277709961,-4.32871675491333,,,128.57609814419897,38.51584110569246
1557947637137,,,,6.053613816091591,,,0.3100491166114807,,,
1557947637161,1.0,,,,,,,,,
1557947637173,,33.699542298472146,,,,,,,,
1557947637174,,,99.5654296875,,,,,,,
1557947637207,4.0,,,6.086649195690227,3.5194764137268066,-5.0900726318359375,0.5542576909065247,1000.1199951171875,136.04723226592571,38.186518278348736
1557947637213,,29.761062792331398,,,,,,,,
1557947637256,,36.31628438080531,,,,,,,,
1557947637267,,,204.5654296875,,,,,,,
1557947637268,,,204.5654296875,,,,,,,
1557947637271,,,,5.794946889691544,4.501099109649658,-7.445967197418213,2.029085874557495,,117.65213947249066,38.92582708397601
1557947637294,,33.94125856013586,204.5654296875,,,,,,,
1557947637302,4.0,,,,,,,,,
1557947637345,,,,,7.383718013763428,,,,,
1557947637346,,,,5.996007226574432,,-11.233593940734863,2.5941176414489746,,125.07804408153362,39.33268582087223
1557947637354,,33.966566742646236,204.5654296875,,,,,,,
1557947637393,,33.65369411303881,,,,,,,,
1557947637397,,,,4.624825964050313,12.502521514892578,-12.799402236938477,,,127.6286143025348,39.02448138748332
1557947637398,1.0,,,,,,3.288435935974121,1000.1499633789063,,
1557947637422,1.0,,,,,,,,,
1557947637433,,40.95713114422723,,,,,,,,
1557947637441,,,62.8955078125,,,,,,,
1557947637470,,,,,12.196063041687012,-10.72602367401123,,,,
1557947637471,,,,8.638820025083358,,,-1.3084312677383423,,124.19719556541207,38.90642673118315
1557947637473,,35.44622966188368,,,,,,,,
1557947637474,,,62.8955078125,,,,,,,
1557947637514,,32.79794397655874,62.8955078125,,,,,,,
1557947637520,,,0.0,,,,,,,
1557947637542,,,,,8.068459510803223,,,,,
1557947637543,,,,5.894780724405138,,-4.659116744995117,-1.1073182821273804,,139.2561234398894,38.57019506605421
1557947637553,,29.548575755362684,,,,,,,,
1557947637561,1.0,,,,,,,,,
1557947637587,,,,,6.885724067687988,-4.343081951141357,,,,
1557947637588,2.0,,,6.545275363010843,,,0.43933600187301636,1000.199951171875,72.93993165602467,38.354922511609686
1557947637613,,29.830250331947987,,,,,,,,
1557947637614,,,0.0,,,,,,,
1557947637640,,,,3.914808982583593,4.711789131164551,-4.8937482833862305,1.2773065567016602,,94.33095715529157,38.7672549192997
1557947637653,,29.3148011881185,,,,,,,,
1557947637686,2.0,,,,,,,,,
1557947637693,,30.98690043766135,,,,,,,,
1557947637694,,,0.0,,,,,,,
1557947637705,,,,3.6621574215598165,4.774038314819336,-4.903325080871582,2.072181463241577,,75.17349913726719,38.81919711556728
1557947637734,,28.748588470630118,,,,,,,,
1557947637773,,33.15272404859979,,,,,,,,
1557947637774,,,0.0,3.569412618875355,6.536170482635498,-5.702988624572754,,1000.1599731445313,79.96017083969303,38.95882435540547
1557947637775,3.0,,,,,,1.5406688451766968,,,
1557947637813,,32.83335038833925,,,,,,,,
1557947637819,3.0,,,,,,,,,
1557947637838,,,,,8.858546257019043,-9.083600997924805,,,89.69007584069965,39.01281824492431
1557947637839,,,,3.865610745279586,,,1.8710685968399048,,,
1557947637873,,35.66397223313834,,,,,,,,
1557947637911,,,,7.386681308984302,11.927912712097168,-11.051634788513184,3.307589530944824,,84.66415627202667,38.75899892899984
1557947637913,,38.84720332671514,,,,,,,,
1557947637923,,,50.1123046875,,,,,,,
1557947637953,,34.89546960911204,,,,,,,,
1557947637954,,,50.1123046875,,,,,,,
1557947637967,,,,,12.234370231628418,,,,,
1557947637968,2.0,,,7.181161756114429,,-11.477803230285645,2.713827610015869,1000.199951171875,84.99901995646485,38.28864207966495
1557947637993,,38.55747404398031,,,,,,,,
1557947637994,,,50.1123046875,,,,,,,
1557947638003,,,74.4384765625,,,,,,,
1557947638033,,39.10716095902294,,,,,,,,
1557947638034,,,74.4384765625,,,,,,,
1557947638036,,,,,8.17380428314209,-10.338163375854492,,,,
1557947638037,,,,4.923715979794388,,,2.0865468978881836,,97.72828641826675,37.63721654323437
1557947638086,,,,,4.903325080871582,,,,,
1557947638087,,,,5.106289459785759,,-7.412448406219482,2.6850972175598145,,88.83548940193685,37.168401228681354
1557947638093,,36.8981803132457,74.4384765625,,,,,,,
1557947638102,,,41.23046875,,,,,,,
1557947638112,2.0,,,,,,,,,
1557947638133,,38.81680066280051,41.23046875,,,,,,,
1557947638156,,,,,2.537853717803955,-4.874594688415527,,,,
1557947638157,5.0,,,5.820480282816552,,,1.3443442583084106,1000.2599487304688,98.77299117257684,38.08464251804839
1557947638173,,33.2373055334818,41.23046875,,,,,,,
1557947638181,,,41.69921875,,,,,,,
1557947638213,,31.349059000173924,41.69921875,,,,,,,
1557947638222,,,,6.232054008259655,3.1268274784088135,-4.060565948486328,0.4537012279033661,,117.11196713179106,38.90321321994518
1557947638248,5.0,,,,,,,,,
1557947638253,,34.12617411829055,,,,,,,,
1557947638254,,,41.69921875,,,,,,,
1557947638261,,,41.1572265625,,,,,,,
1557947638271,,,,7.264488475877852,2.8347349166870117,-5.506663799285889,-0.23582886159420013,,144.13234575252324,40.00924874920224
1557947638293,,36.005880235561335,,,,,,,,
1557947638294,,,41.1572265625,,,,,,,
1557947638342,8.0,,,7.109628257851725,4.754884719848633,-7.747636795043945,-0.04908113554120064,1000.25,146.54142177467844,39.9101488944177
1557947638353,,40.371688289428874,41.1572265625,,,,,,,
1557947638363,,,45.5029296875,,,,,,,
1557947638387,8.0,,,,,,,,,
1557947638393,,32.392951768367595,45.5029296875,,,,,,,
1557947638405,,,,6.506375633880983,7.814674377441406,-10.299856185913086,,,131.44279684074502,40.83295244737343
1557947638406,,,,,,,0.8702923059463501,,,
1557947638433,,29.930851993045554,45.5029296875,,,,,,,
1557947638434,,,0.0,,,,,,,
1557947638473,,32.99053309472244,,,,,,,,
1557947638480,,,,8.677593922943382,11.41555404663086,-13.340492248535156,1.4305355548858643,,129.2245016624866,40.73585681205691
1557947638513,,39.2567667121917,,,,,,,,
1557947638521,8.0,,,,,,,,,
1557947638539,1.0,,,6.40935757326373,12.172121047973633,-10.649409294128418,0.24779987335205078,1000.199951171875,130.81523905980424,39.200256244643164
1557947638554,,32.70532906731395,,,,,,,,
1557947638563,,,57.5244140625,,,,,,,
1557947638591,,,,,8.700529098510742,,,,,
1557947638592,,,,4.53735592615999,,-4.7405195236206055,-0.39384618401527405,,124.74535922744062,38.0699370296069
1557947638613,,36.48391524652474,,,,,,,,
1557947638614,,,57.5244140625,,,,,,,
1557947638641,1.0,,,,,,,,,
1557947638653,,39.04083316645678,,,,,,,,
1557947638654,,,57.5244140625,,,,,,,
1557947638657,,,,6.892764911839284,7.3454108238220215,-3.222595453262329,0.4489128291606903,,105.58679471877076,37.83966293580021
1557947638662,,,43.06640625,,,,,,,
1557947638694,,32.91986746519589,43.06640625,,,,,,,
1557947638734,,31.082307112944093,43.06640625,,,,,,,
1557947638735,4.0,,,7.0556948123248615,6.04775333404541,-4.716577529907227,0.3531447649002075,1000.219970703125,70.24404916043147,37.7045087440417
1557947638742,,,0.0,,,,,,,
1557947638770,4.0,,,,,,,,,
1557947638773,,28.522788495049532,,,,,,,,
1557947638786,,,,4.6297755974258115,6.258443355560303,-5.947196960449219,2.431311845779419,,82.15586492198787,38.013945006452765
1557947638833,,30.81919170832174,,,,,,,,
1557947638834,,,0.0,,,,,,,
1557947638846,,,,6.014013773165003,7.90086555480957,-5.918466567993164,2.977189779281616,,72.92354603220582,37.58111354511917
1557947638873,,31.965974147432256,,,,,,,,
1557947638888,4.0,,,,,,,,,
1557947638905,5.0,,,5.8844392308048485,10.467450141906738,-7.829039573669434,0.9085995554924011,1000.2599487304688,75.98629164849876,37.44836430561768
1557947638913,,31.467612430963996,,,,,,,,
1557947638914,,,0.0,,,,,,,
1557947638953,,35.821079482845775,,,,,,,,
1557947638980,,,,,11.93748950958252,-11.51611042022705,,,87.07765142657485,37.25694542363618
1557947638981,,,,7.863298229458817,,,3.092111587524414,,,
1557947638993,,35.257829256923465,,,,,,,,
1557947639002,,,95.693359375,,,,,,,
1557947639009,5.0,,,,,,,,,
1557947639033,,44.00580968820197,,,,,,,,
1557947639034,,,95.693359375,,,,,,,
1557947639053,,,,,10.764330863952637,,,,,
1557947639054,,,,7.819824203505503,,-13.03403377532959,3.575740337371826,,86.52692644360752,36.84616733945911
1557947639093,,41.0730909538055,,,,,,,,
1557947639094,,,95.693359375,,,,,,,
1557947639101,,,77.6416015625,,,,,,,
1557947639117,2.0,,,8.373855740394475,6.2632317543029785,-10.994174003601074,2.823961019515991,1000.22998046875,83.15217778602846,36.49780948493331
1557947639127,2.0,,,,,,,,,
1557947639133,,39.99778634363353,77.6416015625,,,,,,,
1557947639174,,37.38570988578524,77.6416015625,,,,,,,
1557947639177,,,,4.252518076199479,5.276820659637451,-6.904877662658691,,,80.78366625735396,36.29944947826245
1557947639178,,,,,,,2.2637176513671875,,,
1557947639181,,,44.00390625,,,,,,,
1557947639213,,28.547452391089507,,,,,,,,
1557947639214,,,44.00390625,,,,,,,
1557947639237,,,,,3.778050184249878,-5.224148273468018,,,88.20437309243852,
1557947639238,,,,5.463173077141231,,,1.6603789329528809,,,37.70848757166784
1557947639248,2.0,,,,,,,,,
1557947639253,,36.660479328205426,,,,,,,,
1557947639254,,,44.00390625,,,,,,,
1557947639294,7.0,40.076089502707156,44.00390625,6.254745817805975,3.2321722507476807,-4.520252704620361,0.03711012750864029,1000.22998046875,104.58205340129436,38.46790924541799
1557947639354,,32.90201847493232,,,,,,,,
1557947639365,,,,7.261211276982951,2.6144683361053467,-4.6255974769592285,0.1041477769613266,,128.73356132532442,39.22575716973987
1557947639386,7.0,,,,,,,,,
1557947639393,,34.63889646572071,,,,,,,,
1557947639400,,,0.0,,,,,,,
1557947639413,,,,7.1265623822386805,4.563348293304443,-7.829039573669434,0.19033902883529663,,129.4590366982065,39.779895758341254
1557947639434,,31.05039621650866,,,,,,,,
1557947639474,,30.10013584143109,,,,,,,,
1557947639481,,,98.701171875,,,,,,,
1557947639482,,,,,8.303091049194336,-10.204087257385254,,,116.63520626734584,
1557947639483,8.0,,,6.540668613891706,,,1.6077064275741577,1000.2599487304688,,39.74028317021821
1557947639510,8.0,,,,,,,,,
1557947639513,,34.15955315442786,,,,,,,,
1557947639514,,,98.701171875,,,,,,,
1557947639563,,,,,11.942277908325195,-9.696516990661621,,,,
1557947639564,,,,5.8432270978869605,,,1.655590534210205,,113.93136660136955,40.0111245357176
1557947639573,,39.35149588709613,98.701171875,,,,,,,
1557947639608,,,,5.745142668039067,10.8505220413208,-9.835380554199219,,,130.06746994947125,38.265780784878615
1557947639609,,,,,,,-1.404199242591858,,,
1557947639613,,34.93537484300851,,,,,,,,
1557947639629,8.0,,,,,,,,,
1557947639653,,35.51954005980535,,,,,,,,
1557947639665,,,92.67578125,,,,,,,
1557947639678,1.0,,,4.348324130599164,8.676587104797363,-5.329493045806885,0.9660604000091553,1000.239990234375,104.6807359744227,37.13906272699768
1557947639693,,31.956093918560594,,,,,,,,
1557947639694,,,92.67578125,,,,,,,
1557947639725,,,,,7.225700855255127,,,,,
1557947639729,,,,3.502325511564086,,-6.119579315185547,-0.16400282084941864,,103.35686772835584,37.29423539868835
1557947639733,,35.854504477939464,,,,,,,,
1557947639734,,,92.67578125,,,,,,,
1557947639740,1.0,,,,,,,,,
1557947639774,,32.493721423558654,,,,,,,,
1557947639789,,,,,6.229712963104248,-5.185841083526611,,,,
1557947639790,,,,3.8127909064699526,,,1.9285295009613037,,76.06671712597563,36.788314334360614
1557947639834,,29.0655192159821,,,,,,,,
1557947639844,,,200.8935546875,,,,,,,
1557947639858,,,,,8.063671112060547,-4.668693542480469,,,64.73700423643356,36.73731128531236
1557947639859,3.0,,,4.138107282897052,,,-0.21188685297966003,1000.22998046875,,
1557947639873,,28.585725978440266,,,,,,,,
1557947639874,,,200.8935546875,,,,,,,
1557947639913,,37.905722671626464,,,,,,,,
1557947639914,,,200.8935546875,,,,,,,
1557947639918,,,,5.454472678594888,9.514557838439941,-7.560888767242432,0.5877765417098999,,70.01906955936045,36.37746712199791
1557947639954,,38.162898169816465,200.8935546875,,,,,,,
1557947639965,,,221.83673095703125,,,,,,,
1557947639990,,,,5.690217762619912,8.504204750061035,-10.27591323852539,4.547786235809326,,60.43485249335015,36.45984215790635
1557947639994,,33.78484206128934,221.83673095703125,,,,,,,
1557947639995,3.0,,,,,,,,,
1557947640034,,35.39666027779593,221.83673095703125,,,,,,,
1557947640061,,,,,12.57913589477539,-11.602301597595215,,,54.272314314706136,36.05440469887569
1557947640062,,,,9.314406641410013,,,5.0697221755981445,1000.2099609375,,
1557947640093,,34.77501623561591,,,,,,,,
1557947640112,,,,4.6818826204664905,9.615114212036133,-10.290278434753418,1.8279730081558228,,60.475505779290074,35.59943928759193
1557947640133,,32.834445797127145,,,,,,,,
1557947640139,3.0,,,,,,,,,
1557947640149,,,54.8193359375,,,,,,,
1557947640173,,31.880007527115623,,,,,,,,
1557947640174,,,54.8193359375,,,,,,,
1557947640183,,,,2.8742469132980757,7.599195957183838,-7.857769966125488,2.474407434463501,,58.474929711014966,35.7391949999192
1557947640213,,36.00249092328383,,,,,,,,
1557947640214,,,54.8193359375,,,,,,,
1557947640234,,,,3.724916106437835,3.7397429943084717,-7.043741226196289,,1000.239990234375,55.58774044695889,36.85878566165693
1557947640235,2.0,,,,,,2.7952303886413574,,,
1557947640254,,40.65511870365964,,,,,,,,
1557947640286,2.0,,,,,,,,,
1557947640310,,,,6.347219636426418,4.4292731285095215,-7.15387487411499,2.096123695373535,,57.59254440233019,37.05927824533208
1557947640313,,42.79104216466066,,,,,,,,
1557947640327,,,65.029296875,,,,,,,
1557947640353,,37.437490817273435,65.029296875,,,,,,,
1557947640360,,,,6.314934591526952,5.310339450836182,-7.445967197418213,,,62.167821749944096,36.56966126251437
1557947640361,,,,,,,2.0673930644989014,,,
1557947640393,,35.70370827295206,,,,,,,,
1557947640394,,,65.029296875,,,,,,,
1557947640407,2.0,,84.53125,,,,,,,
1557947640433,,36.933072780438415,,,,,,,,
1557947640434,,,84.53125,,,,,,,
1557947640435,8.0,,,6.466803068839528,6.497863292694092,-7.762001991271973,3.111265182495117,1000.25,76.55282168920542,36.31776539641838
1557947640473,,36.95305245007335,,,,,,,,
1557947640474,,,84.53125,,,,,,,
1557947640494,,,,7.53847780480419,6.694188117980957,-7.560888767242432,4.049792289733887,,65.89544530080275,35.55306003132423
1557947640513,,41.10816074287165,,,,,,,,
1557947640542,8.0,,,,,,,,,
1557947640562,,,,,6.517016887664795,,,,,
1557947640563,,,,5.768280823578891,,-7.469909191131592,2.297236442565918,,73.18053872991669,34.62903397510639
1557947640573,,32.884312383278925,,,,,,,,
1557947640581,,,81.5966796875,,,,,,,
1557947640610,,,,,9.006986618041992,,,,,
1557947640611,7.0,,,3.0759253993518647,,-5.544970989227295,-1.4856021404266357,1000.239990234375,67.70873758203606,34.0207288276919
1557947640614,,33.11867826335052,81.5966796875,,,,,,,
1557947640653,,32.44918242173056,,,,,,,,
1557947640654,,,81.5966796875,,,,,,,
1557947640685,,,,3.793675208572126,9.59596061706543,-5.889736175537109,-2.721010208129883,,72.4253656945234,34.65876643821414
1557947640686,7.0,,,,,,,,,
1557947640694,,38.62210385037535,81.5966796875,,,,,,,
1557947640734,,34.417391453214094,,,,,,,,
1557947640737,,,,2.10810191979032,8.580819129943848,-7.738059997558594,1.1480196714401245,,65.25243763195942,36.12132334231402
1557947640774,,36.057291651669324,,,,,,,,
1557947640781,,,234.521484375,,,,,,,
1557947640807,2.0,,,2.265688875547574,6.919242858886719,-6.588842868804932,0.5877765417098999,1000.239990234375,38.55439612872766,35.24854659053436
1557947640809,2.0,,,,,,,,,
1557947640833,,33.568209966036136,,,,,,,,
1557947640834,,,234.521484375,,,,,,,
1557947640874,,34.96865386638242,234.521484375,,,,,,,
1557947640884,,,,1.6510287343510506,6.14831018447876,-5.760449409484863,0.1472434103488922,,40.54917678149195,34.14147081332137
1557947640913,,34.87173592691076,,,,,,,,
1557947640935,,,,1.5549127616820342,6.751648902893066,-5.975927352905273,-0.585382342338562,,35.88615540870546,33.669422398720585
1557947640936,2.0,,,,,,,,,
1557947640953,,33.09192414705106,,,,,,,,
1557947640962,,,40.263671875,,,,,,,
1557947640994,,40.84026788471583,40.263671875,,,,,,,
1557947641006,,,,1.3590747019241276,8.427590370178223,-6.114790916442871,-0.8966285586357117,1000.239990234375,19.584775143067816,33.312762592705035
1557947641053,,37.31963902242997,40.263671875,,,,,,,
1557947641059,,,,1.7436502243537595,7.977479934692383,-6.521805286407471,1.2533645629882813,,19.95193025435458,32.554418260318386
1557947641060,2.0,,,,,,,,,
1557947641093,,35.72075561647534,,,,,,,,
1557947641126,,,,,6.18182897567749,-6.780379295349121,,,,
1557947641127,,,,3.567758660994062,,,2.292448043823242,,12.732367367685015,31.939161684592253
1557947641133,,34.072652617323016,,,,,,,,
1557947641143,,,93.154296875,,,,,,,
1557947641144,,,93.154296875,,,,,,,
1557947641174,,33.794843591731464,93.154296875,,,,,,,
1557947641195,,,,,6.708553314208984,-7.436390399932861,,,,
1557947641196,3.0,,,3.5802629904875265,,,1.9333178997039795,1000.2599487304688,4.031739431200776,30.664964895550224
1557947641214,,31.3676349256132,93.154296875,,,,,,,
1557947641232,,,98.9892578125,,,,,,,
1557947641248,,,,3.761121787677927,6.229712963104248,-8.9064302444458,,,3.870104285152877,29.494746453997575
1557947641249,,,,,,,1.8519150018692017,,,
1557947641253,,31.599251356222688,,,,,,,,
1557947641254,,,98.9892578125,,,,,,,
1557947641313,,34.84139174070313,,,,,,,,
1557947641314,3.0,,98.9892578125,3.2075679576212863,6.133944988250732,-4.994304656982422,2.5797524452209473,,4.767181757629146,28.6729849358449
1557947641353,,34.28531635604821,,,,,,,,
1557947641354,,,98.9892578125,,,,,,,
1557947641365,4.0,,,3.380360761045616,8.355764389038086,-6.766014099121094,0.6835445761680603,1000.3299560546875,359.10869996042703,27.66026148540778
1557947641393,,33.95659686651279,,,,,,,,
1557947641434,,33.773534989725164,,,9.911994934082031,,,,,
1557947641435,,,,4.129240457367522,,-8.595184326171875,1.0666168928146362,,352.13443440653606,27.37005778043516
1557947641436,4.0,,,,,,,,,
1557947641444,,,99.7705078125,,,,,,,
1557947641473,,31.55169918429495,,,,,,,,
1557947641474,,,99.7705078125,,,,,,,
1557947641494,,,,,11.08994197845459,-6.689399719238281,,,347.4426750128168,
1557947641495,,,,5.671099144701422,,,0.05147533491253853,,,26.386739574048622
1557947641513,,29.768250391825042,,,,,,,,
1557947641514,,,99.7705078125,,,,,,,
1557947641553,4.0,,,,,,,,,
1557947641554,13.0,,,5.719111863657958,10.47702693939209,-7.905653953552246,2.3546974658966064,1000.25,330.44752681997153,25.884357868443594
1557947641574,,29.045273372697,,,,,,,,
1557947641614,,30.303380326570792,0.0,,,,,,,
1557947641623,,,,,8.892065048217773,-9.011775016784668,,,323.5399106255275,
1557947641624,,,,5.85485926249663,,,2.694674015045166,,,23.986038124897718
1557947641654,,37.571255386844015,,,,,,,,
1557947641664,13.0,,,,,,,,,
1557947641688,,,,6.31670881406601,6.464344501495361,-9.040505409240723,2.6372132301330566,,314.6823949513553,22.75609854731861
1557947641694,,42.37504531850508,,,,,,,,
1557947641704,,,39.6630859375,,,,,,,
1557947641734,,39.97837947984503,39.6630859375,,,,,,,
1557947641763,,,,,6.234501361846924,-8.336610794067383,,,338.3740620970616,
1557947641764,4.0,,,6.568231604652314,,,2.84790301322937,1000.2599487304688,,22.378784944082682
1557947641784,4.0,,,,,,,,,
1557947641793,,38.969180929072174,39.6630859375,,,,,,,
1557947641802,,,52.1630859375,,,,,,,
1557947641803,,,52.1630859375,,,,,,,
1557947641810,,,,6.639047951524128,5.367800235748291,-8.33182144165039,0.970848798751831,,354.45725666541824,22.834404259758625
1557947641833,,36.20109800367078,,,,,,,,
1557947641834,,,52.1630859375,,,,,,,
1557947641873,,37.17676482830037,,,,,,,,
1557947641874,,,52.1630859375,,,,,,,
1557947641879,,,,6.77968765754638,4.54419469833374,-7.067683219909668,0.8655039072036743,,16.163856114246755,24.109957375306813
1557947641913,,35.78680328967187,,,,,,,,
1557947641925,4.0,,,,,,,,,
1557947641953,5.0,,,7.312873504750672,4.247313976287842,-7.838616371154785,-0.25498247146606445,1000.2899780273438,339.92012151947085,25.728778221338416
1557947641954,,32.797051959372176,,,,,,,,
1557947641962,,,43.06640625,,,,,,,
1557947641993,,36.82612357353332,,,,,,,,
1557947641994,,,43.06640625,,,,,,,
1557947642004,,,,4.495933602776101,5.722142219543457,-6.253654956817627,0.14245499670505524,,335.9809960383209,26.310074746182682
1557947642052,5.0,,,,,,,,,
1557947642054,,35.15837637203273,43.06640625,,,,,,,
1557947642076,,,,2.4847563444916885,7.939172744750977,-6.517016887664795,-1.2413935661315918,,316.38877428151045,26.873965658465867
1557947642093,,34.38616834317597,,,,,,,,
1557947642094,,,43.06640625,,,,,,,
1557947642130,,,,1.8794166680586064,8.154650688171387,-8.451532363891602,,,317.886043955131,27.12802978541102
1557947642131,2.0,,,,,,-0.7481880187988281,1000.219970703125,,
1557947642134,,37.18631245133422,,,,,,,,
1557947642174,2.0,31.10060371991372,,,,,,,,
1557947642184,,,646.62109375,,,,,,,
1557947642185,,,646.62109375,,,,,,,
1557947642200,,,,1.7903780702025158,8.135497093200684,-7.283161640167236,1.382651448249817,,330.4351402719117,27.50908912615022
1557947642213,,28.9514071804196,,,,,,,,
1557947642214,,,646.62109375,,,,,,,
1557947642249,,,,,7.948749542236328,-6.607996463775635,,,329.00202315007044,
1557947642250,,,,1.835153485357379,,,0.5734112858772278,,335.2193018798175,27.06326005639221
1557947642254,,28.358378209633447,646.62109375,,,,,,,
1557947642255,,,0.0,,,,,,,
1557947642300,2.0,,,,,,,,,
1557947642314,,28.7425526157786,,,,,,,,
1557947642322,,,,,8.073247909545898,,,,,
1557947642324,8.0,,,2.6162072922473674,,-5.793968200683594,0.09935937076807022,1000.239990234375,338.34926168018524,27.1849231240661
1557947642354,,30.281056937795675,0.0,,,,,,,
1557947642372,,,,,7.469909191131592,,,,,
1557947642373,,,,4.4760793055649755,,-4.381389141082764,0.27653029561042786,,341.2717220411153,26.897956055413474
1557947642393,,34.000136019548385,,,,,,,,
1557947642432,8.0,,,,,,,,,
1557947642434,,33.136203121100266,,,,,,,,
1557947642439,,,,,6.708553314208984,-4.410119533538818,,,,
1557947642440,,,,4.1993132256814105,,,0.645237386226654,,339.8759233653517,27.069356091628528
1557947642445,,,111.27970377604166,,,,,,,
1557947642474,,30.458508538380915,111.27970377604166,,,,,,,
1557947642501,13.0,,,4.168164149443851,7.915230751037598,-5.353435039520264,-0.48961424827575684,1000.2699584960938,335.1658471118257,27.234354575538557
1557947642533,,28.74630676238661,,,,,,,,
1557947642534,,,111.27970377604166,,,,,,,
1557947642549,13.0,,,,,,,,,
1557947642573,,27.664341492052774,,1.5305398345219878,6.320692539215088,-6.464344501495361,0.5829881429672241,,331.43388126820224,27.98321045395497
1557947642613,,40.8772477295502,,,,,,,,
1557947642629,,,222.5083269391741,,,,,,,
1557947642643,,,,,8.494627952575684,,,,,
1557947642644,,,,2.2320755016518734,,-7.359776020050049,1.703474521636963,,328.70271743045134,28.529459478176484
1557947642653,,37.3460687526828,,,,,,,,
1557947642654,,,222.5083269391741,,,,,,,
1557947642678,13.0,,,,,,,,,
1557947642694,,36.68927912511759,222.5083269391741,,,,,,,
1557947642696,,,,,8.389283180236816,-9.701305389404297,,,320.6293177182804,
1557947642697,9.0,,,3.2870781863586487,,,2.1775264739990234,1000.3399658203125,,29.17139085612071
1557947642734,,37.83966410817415,222.5083269391741,,,,,,,
1557947642744,,,280.38850911458337,,,,,,,
1557947642765,,,,6.788701195974283,11.405977249145508,-11.425130844116211,3.3650505542755127,,320.21070566933406,30.35671255235635
1557947642793,,37.23535239221289,,,,,,,,
1557947642794,,,280.38850911458337,,,,,,,
1557947642796,9.0,,,,,,,,,
1557947642814,,,,,7.469909191131592,,,,,
1557947642815,,,,3.9655496504458707,,-9.385271072387695,3.2166099548339844,,311.9337629048021,31.322994238898325
1557947642833,,35.14869563592565,,,,,,,,
1557947642834,,,280.38850911458337,,,,,,,
1557947642873,,32.004213987258886,,,,,,,,
1557947642899,,,,,4.8602294921875,-8.327033042907715,,,292.5901446658545,
1557947642900,2.0,,,5.426186553998934,,,2.584540843963623,1000.3399658203125,280.0321042163557,31.838027963203448
1557947642913,,31.922354382239355,,,,,,,,
1557947642916,2.0,,,,,,,,,
1557947642928,,,40.693359375,,,,,,,
1557947642951,,,,,3.471592426300049,,,,,
1557947642952,,,,6.263382888660164,,-6.392518520355225,3.7241806983947754,,288.77912450523,32.1045166765591
1557947642954,,36.13264448268589,40.693359375,,,,,,,
1557947643003,,,,5.281282864981876,3.643975019454956,-5.420472621917725,2.340332269668579,,273.4780527642974,32.14420632089086
1557947643013,,36.412549868843655,40.693359375,,,,,,,
1557947643053,2.0,33.595789863792916,,,,,,,,
1557947643069,,,,5.104547582412977,5.525817394256592,-5.674258232116699,1.622071623802185,1000.2999877929688,232.71822270351845,32.32352104373524
