timestamp,LinearAccelerometerSensor,AccX,AccY,AccZ,BarometerSensor
1557221115089,,-0.5482721924781799,,,
1557221115091,0.05183532821208075,,3.557783842086792,9.121908187866211,
1557221115155,0.11049023498215799,-0.507570743560791,3.4835634231567383,9.038111686706543,
1557221115211,0.054037389498274906,-0.5770025849342346,3.442862033843994,9.10993766784668,1012.997802734375
1557221115265,0.23146187445377886,-0.5626373887062073,3.3231520652770996,,
1557221115266,,,,8.966285705566406,
1557221115325,0.16965861590139855,-0.6823474764823914,3.380612850189209,9.32541561126709,
1557221115385,,-0.6991068720817566,,,
1557221115386,0.10951523220875145,,3.332728862762451,9.255983352661133,1013.005859375
1557221115447,0.02644096754377684,-0.5913678407669067,3.3877954483032227,9.188945770263672,
1557221115505,0.32753765808787055,-0.5410895943641663,3.4787750244140625,8.887276649475098,
1557221115570,,-0.5770025849342346,,,
1557221115573,0.2803732797184694,,3.332728862762451,8.913613319396973,1012.99853515625
1557221115627,0.14239411695106816,-0.6607996821403503,3.445256233215332,9.284713745117188,
1557221115687,0.2555421216400772,-0.8092401623725891,3.098097085952759,,
1557221115688,,,,9.220070838928223,
1557221115749,0.12862169763924536,-0.49559974670410156,3.222595453262329,9.196128845214844,1012.994384765625
1557221115809,0.1251550249570787,-0.5841852426528931,3.248931646347046,9.114726066589355,
1557221115868,,-1.072602391242981,3.090914487838745,,
1557221115869,0.43107436653298176,,,9.124302864074707,
1557221115928,,-1.2090718746185303,2.999934673309326,,1013.004638671875
1557221115929,0.7181625453340567,,,9.734824180603027,
1557221115989,,-0.9313444495201111,,,
1557221115990,0.9891099132002887,,3.021482467651367,8.271966934204102,
1557221116050,0.48444670484841335,-0.8259995579719543,3.023876667022705,8.810662269592285,
1557221116110,,-0.790086567401886,,,
1557221116111,0.3783901868897124,,2.889801502227783,8.98543930053711,1013.010009765625
1557221116170,,-0.16519992053508759,,,
1557221116171,0.43277672092993996,,3.004723072052002,9.342175483703613,
1557221116235,1.906946398993436,1.1516109704971313,3.8163576126098633,8.734047889709473,
1557221116293,,-1.0438719987869263,,,
1557221116294,0.9232780964426802,,2.140416383743286,9.064447402954102,1012.994140625
1557221116351,0.4499633257544464,-0.4644751250743866,2.4396915435791016,9.86650562286377,
1557221116412,0.341195280068477,-0.40462008118629456,2.513911724090576,9.801861763000488,
1557221116472,,-0.2968810200691223,2.6024973392486572,,
1557221116473,0.14540734759116739,,,9.461885452270508,1012.9912109375
1557221116532,,-0.4884171485900879,,,
1557221116533,0.21498461353613985,,2.406172752380371,9.579200744628906,
1557221116593,0.44884226405729005,-0.2849099934101105,2.4612393379211426,9.026140213012695,
1557221116654,0.5325003663361771,-0.7445967197418213,2.183511972427368,9.521739959716797,1012.981689453125
1557221116714,0.2762307682937954,-0.10295066982507706,2.322375535964966,9.289502143859863,
1557221116773,0.1537856311914304,-0.1628057211637497,2.3104045391082764,9.435548782348633,
1557221116834,,-0.36152446269989014,,,
1557221116835,0.4560125523447833,,2.43011474609375,9.943120002746582,1012.987060546875
1557221116894,0.2596058461686718,0.0071826050989329815,2.123656988143921,9.409213066101074,
1557221116954,,-0.014365210197865963,,,
1557221116955,,,2.2888567447662354,,
1557221116956,0.19314048399471448,,,9.710882186889648,
1557221117013,,0.05267243832349777,,,
1557221117014,0.3638637548705526,,2.1092917919158936,9.813833236694336,1012.98681640625
1557221117075,0.3310445035645245,-0.14844051003456116,2.3247697353363037,9.2033109664917,
1557221117136,0.17947150807600307,-0.1843535304069519,2.0925323963165283,9.466673851013184,
1557221117195,0.06483611556002396,-0.14844051003456116,2.22660756111145,9.488221168518066,1012.980712890625
1557221117256,0.23016520893868891,-0.08379705995321274,2.2170307636260986,9.785101890563965,
1557221117314,0.08471700025198763,-0.08379705995321274,2.2194249629974365,9.514557838439941,
1557221117375,0.13508222542844192,-0.05746084079146385,2.0877439975738525,9.670180320739746,1012.985595703125
1557221117437,,-0.09576806426048279,,,
1557221117439,0.07990456298994915,,2.1571757793426514,,
1557221117440,,,,9.493009567260742,
1557221117496,0.11607041397804085,-0.1843535304069519,2.123656988143921,,
1557221117497,,,,9.459490776062012,
1557221117555,,-0.1173158809542656,2.123656988143921,,
1557221117556,0.07235442003057388,,,9.50498104095459,1012.99169921875
1557221117614,,-0.12689268589019775,2.1475989818573,,
1557221117615,0.032532561329347974,,,9.557653427124023,
1557221117674,0.05756376909846122,-0.20111294090747833,2.140416383743286,9.591172218322754,
1557221117737,0.11755647982845081,-0.08619125932455063,2.013523578643799,9.548076629638672,1013.000732421875
1557221117797,0.11355354206149185,-0.14365209639072418,2.121262788772583,9.461885452270508,
1557221117856,,-0.038307227194309235,2.0661959648132324,,
1557221117857,0.17083989911914216,,,9.430760383605957,
1557221117916,,-0.15562310814857483,,,
1557221117917,0.21430604577823947,,1.9536685943603516,9.780313491821289,1013.00830078125
1557221117978,0.13393996422993298,-0.24181437492370605,2.070984363555908,9.619902610778809,
1557221118040,0.1358928941570344,-0.24899697303771973,1.9967641830444336,9.59835433959961,
1557221118099,0.07551565303245512,-0.08619125932455063,2.0422539710998535,9.521739959716797,1013.003662109375
1557221118159,,-0.06224924325942993,,,
1557221118160,0.07813198535207876,,2.097320795059204,9.557653427124023,
1557221118219,0.11313372904994554,0.011971008032560349,1.9728221893310547,9.583989143371582,
1557221118291,0.15400619529324355,0.038307227194309235,2.013523578643799,9.459490776062012,1013.010498046875
1557221118341,0.12226419310904348,0.06703764945268631,2.030282974243164,9.68933391571045,
1557221118407,0.1304048501649634,0.06703764945268631,2.078166961669922,9.485827445983887,
1557221118476,0.02729259329196764,-0.019153613597154617,2.0470423698425293,9.603142738342285,1013.0126953125
1557221118533,0.08171406800878242,-0.047884032130241394,2.0207061767578125,9.533711433410645,
1557221118592,0.14909706896476094,0.10295066982507706,2.0661959648132324,9.696516990661621,
1557221118643,0.24467481536433416,0.07661445438861847,2.205059766769409,9.787496566772461,1013.01318359375
1557221118709,0.1830740532946042,0.17717093229293823,2.1499931812286377,9.497797966003418,
1557221118777,0.21889135357682873,0.011971008032560349,2.1380221843719482,9.346963882446289,
1557221118828,0.08459188613416561,0.047884032130241394,2.1978771686553955,9.478644371032715,1013.012939453125
1557221118883,,0.08858546614646912,2.252943754196167,,
1557221118884,0.07551715454097213,,,9.557653427124023,
1557221118945,0.058447701509104395,0.12449848651885986,2.1356279850006104,9.57201862335205,
1557221119003,0.15787175288942357,0.08140286058187485,2.209848165512085,9.406818389892578,1013.005859375
1557221119064,0.11604849096169276,-0.035913024097681046,2.1595699787139893,9.567230224609375,
1557221119127,0.10043237129877847,0.1364694982767105,2.097320795059204,9.50498104095459,
1557221119185,,0.040701430290937424,,,
1557221119187,0.043399291577334465,,2.1356279850006104,9.567230224609375,1013.005126953125
1557221119281,,0.05027823522686958,,,
1557221119282,0.03058763093145749,,2.140416383743286,9.579200744628906,
1557221119304,0.03149086543359833,0.10055647045373917,2.1068975925445557,9.560047149658203,
1557221119364,0.030034384645380708,0.08858546614646912,2.121262788772583,9.557653427124023,1012.9951171875
1557221119424,0.060124982798791,0.043095629662275314,2.0398597717285156,9.59835433959961,
1557221119485,,0.09576806426048279,,,
1557221119486,0.09907949448520223,,2.1092917919158936,9.500192642211914,
1557221119546,0.05490373750476132,0.05027823522686958,2.0805611610412598,9.53849983215332,1012.992919921875
1557221119605,0.08638970112250534,-0.0694318488240242,2.030282974243164,9.531316757202148,
1557221119666,0.1715815922444372,-0.019153613597154617,2.0685901641845703,9.41639518737793,
1557221119726,0.05113176273349523,-0.07182604819536209,2.056619167327881,9.555258750915527,1012.992919921875
1557221119786,0.11607833317116538,-0.09576806426048279,1.886630892753601,9.59835433959961,
1557221119846,0.054969846366729136,-0.10055647045373917,1.965639591217041,9.653421401977539,
1557221119906,0.1793354566364493,-0.2561795711517334,1.965639591217041,9.493009567260742,1012.99169921875
1557221119967,0.18343234576468884,-0.1604115068912506,1.9991583824157715,9.425971984863281,
1557221120027,0.20519890634471172,-0.10295066982507706,2.0159177780151367,9.418789863586426,
1557221120087,0.1667933032616015,-0.2298433631658554,1.8195933103561401,9.75397777557373,1012.991943359375
1557221120148,0.7023389873406808,-0.7852981686592102,1.558625340461731,10.022128105163574,
1557221120208,,-1.048660397529602,,,
1557221120209,0.7744029791136257,,2.5234885215759277,9.308655738830566,
1557221120269,1.485053459515316,-1.6735470294952393,2.276885747909546,,1012.9912109375
1557221120270,,,,8.224082946777344,
1557221120330,,-0.33758243918418884,,,
1557221120331,0.9385480426793323,,3.112462282180786,9.287108421325684,
1557221120389,,-0.4118026793003082,,,
1557221120390,1.4601924852964459,,1.5538369417190552,10.520122528076172,
1557221120449,,-0.7541735172271729,,,
1557221120450,0.8267646989326063,,2.054224967956543,10.268731117248535,1012.9912109375
1557221120510,0.40512979558632817,-0.7254431247711182,2.142810583114624,9.294290542602539,
1557221120570,,-0.8858546018600464,,,
1557221120571,0.324358186267663,,1.9823989868164062,9.251194953918457,
1557221120630,,-1.1324573755264282,,,
1557221120631,0.33721663668220153,,1.9823989868164062,9.86889934539795,1013.0048828125
1557221120692,0.4991871216355716,-1.0678139925003052,1.8722656965255737,10.070012092590332,
1557221120752,0.27914157631319886,-1.2066776752471924,1.922544002532959,9.706093788146973,
1557221120811,,-0.9864110946655273,2.008735179901123,,1013.0029296875
1557221120812,0.302198156644266,,,9.63187313079834,
1557221120871,0.8189788876980763,-1.0271124839782715,2.741360902786255,8.60236644744873,
1557221120933,,-0.9792284965515137,,,
1557221120936,0.26987864731978284,,2.6599581241607666,9.155426979064941,
1557221120992,0.2297448978589147,-0.8643068075180054,2.8634653091430664,9.17936897277832,1013.0224609375
1557221121053,,-0.8379706144332886,,,
1557221121054,0.33263776024516556,,2.760514497756958,9.057265281677246,
1557221121112,0.4634092459679879,-0.8571242094039917,2.5665841102600098,8.96389102935791,
1557221121172,,-0.4213795065879822,,,
1557221121173,0.7466027885031365,,1.8483237028121948,10.02452278137207,1013.057373046875
1557221121232,0.7673455194085068,-0.31842881441116333,1.7956513166427612,10.08198356628418,
1557221121292,0.4294061780212844,-0.8044517636299133,2.5091233253479004,9.14585018157959,
1557221121353,0.355305665721271,-0.7805097699165344,2.604891538619995,9.373299598693848,1013.007080078125
1557221121412,,-0.7781155705451965,,,
1557221121413,0.2339174334082921,,2.516305923461914,9.445125579833984,
1557221121472,0.34034464086216876,-0.849941611289978,2.470816135406494,9.17936897277832,
1557221121532,,-0.7015010714530945,,,
1557221121533,0.04691780639180787,,2.4588451385498047,9.469067573547363,1013.01025390625
1557221121592,,-0.6655880808830261,,,
1557221121593,0.09912309503649024,,2.5761611461639404,9.418789863586426,
1557221121652,,-0.5985504388809204,,,
1557221121654,0.1509006447547918,,2.470816135406494,9.524134635925293,
1557221121713,0.12155891872857683,-0.6512228846549988,2.5498247146606445,9.387664794921875,1013.01171875
1557221121774,0.17056572270450243,-0.7350199222564697,2.477998733520508,9.289502143859863,
1557221121832,0.09169660326850457,-0.7422025203704834,2.5929205417633057,9.41400146484375,
1557221121893,0.10158728333845911,-0.8834604024887085,2.513911724090576,9.526528358459473,1013.00439453125
1557221121953,0.1616463079693419,-0.8834604024887085,2.497152328491211,9.301473617553711,
1557221122016,,-0.8379706144332886,2.410961151123047,,
1557221122078,,-0.7350199222564697,,,
1557221122079,0.1263045174734463,,2.3582887649536133,9.528923034667969,1013.014404296875
1557221122137,,-0.5099649429321289,,,
1557221122138,0.39836935320737166,,2.0877439975738525,9.442731857299805,
1557221122197,0.5337346540205921,-0.9241618514060974,2.4444799423217773,8.911218643188477,
1557221122257,0.16868292548382033,-0.8451532125473022,2.319981336593628,9.495404243469238,1013.010498046875
1557221122317,0.4481363607905803,-1.113303780555725,2.631227731704712,9.763554573059082,
1557221122378,0.2184724835527092,-1.036689281463623,2.3535003662109375,9.272743225097656,
1557221122451,,-0.9840168952941895,,,
1557221122453,0.10261716139102947,,2.2864625453948975,9.545681953430176,1012.9755859375
1557221122508,0.15408117572838492,-1.01753568649292,2.4372973442077637,9.406818389892578,
1557221122635,0.1345794815793209,-0.9002198576927185,2.33913516998291,9.346963882446289,1013.013427734375
1557221122771,,-0.8690952062606812,,,
1557221122773,0.026629966368354067,-0.8547300100326538,2.2218191623687744,9.53849983215332,
1557221122804,0.15706834473571493,-0.8667010068893433,2.1475989818573,9.68933391571045,1013.008544921875
1557221122862,,-0.8619126081466675,,,
1557221122863,0.03799884570793588,,2.099714994430542,9.564835548400879,
1557221122926,0.0640529833389099,-0.8690952062606812,2.070984363555908,9.488221168518066,
1557221122984,,-0.811634361743927,,,
1557221122985,0.07627676808584494,,2.030282974243164,9.610325813293457,1013.009521484375
1557221123046,0.12345587406542488,-0.8930372595787048,2.145204782485962,9.485827445983887,
1557221123106,0.09787601538505365,-0.7852981686592102,1.9632453918457031,9.615114212036133,
1557221123165,0.05403575432368588,-0.7493851184844971,1.9823989868164062,9.57441234588623,1013.005615234375
1557221123226,0.06145663267479301,-0.768538773059845,2.049436569213867,9.586383819580078,
1557221123284,,-0.8547300100326538,,,
1557221123285,0.06218040980602393,,2.0015525817871094,9.583989143371582,
1557221123344,,-0.7445967197418213,,,
1557221123345,0.08543508140235367,,1.9273324012756348,9.524134635925293,1013.001708984375
1557221123407,,-0.8092401623725891,,,
1557221123408,0.06664676796147094,,2.03507137298584,9.5624418258667,
1557221123468,0.1138222780866361,-0.7972691655158997,1.8746598958969116,9.655815124511719,
1557221123530,0.07044598372889387,-0.7876923680305481,1.9512743949890137,9.648633003234863,1012.98828125
1557221123589,0.04132147975797661,-0.7972691655158997,1.9823989868164062,,
1557221123590,,,,9.579200744628906,
1557221123649,0.09373452138277284,-0.8188169598579407,1.9081788063049316,9.50498104095459,
1557221123713,,-0.706289529800415,,,
1557221123714,0.2318320122171994,,1.9752163887023926,9.35893440246582,1012.98486328125
1557221123770,0.10823372191381755,-0.6823474764823914,1.9105730056762695,9.696516990661621,
1557221123831,,-0.7038952708244324,,,
1557221123832,0.20895186732934964,,1.8555063009262085,9.813833236694336,
1557221123893,0.15760092267300974,-0.6751648783683777,1.821987509727478,,1013.002197265625
1557221123894,,,,9.452308654785156,
1557221123962,0.0831099779046558,-0.7206547260284424,1.8195933103561401,9.68694019317627,
1557221124027,0.08992583215592007,-0.7445967197418213,1.800439715385437,,
1557221124028,,,,9.68694019317627,
1557221124083,0.08406209676142412,-0.6703764796257019,1.8052281141281128,9.674968719482422,1013.0029296875
1557221124142,,-0.6631938815116882,1.8315643072128296,,
1557221124143,0.14659936206486596,,,9.751583099365234,
1557221124211,0.05252396586468868,-0.6991068720817566,1.8052281141281128,9.5624418258667,
1557221124260,,-0.7015010714530945,1.802833914756775,,1013.007568359375
1557221124261,0.14775788805450443,,,9.464279174804688,
1557221124326,0.09058884894399831,-0.6991068720817566,1.7956513166427612,9.68694019317627,
1557221124393,0.07896632832130125,-0.7709329724311829,1.845929503440857,9.667786598205566,
1557221124444,0.03188555002343012,-0.6967126727104187,1.8411411046981812,9.624691009521484,1013.019775390625
1557221124517,0.09467005273072855,-0.7757213711738586,1.802833914756775,9.68933391571045,
1557221124562,0.04907281362882345,-0.751779317855835,1.800439715385437,9.648633003234863,
1557221124628,0.08877291237547308,-0.7350199222564697,1.800439715385437,9.694122314453125,1013.017578125
1557221124695,0.09686660999452375,-0.8068459630012512,1.8579005002975464,9.672574996948242,
1557221124746,,-0.7374141216278076,,,
1557221124747,0.06690598480295881,,1.845929503440857,9.536105155944824,
1557221124812,0.23026879575287992,-0.8068459630012512,1.824381709098816,9.370905876159668,1013.01708984375
1557221124878,0.2422511801523608,-0.7852981686592102,1.7717092037200928,,
1557221124879,,,,9.837775230407715,
1557221124932,0.06511979233463785,-0.8236053586006165,1.8770540952682495,9.624691009521484,
1557221124996,0.052997177107045663,-0.8427590131759644,1.802833914756775,9.646238327026367,1013.0107421875
1557221125047,0.0176578969999583,-0.8259995579719543,1.8052281141281128,9.600749015808105,
1557221125113,0.06624723778445434,-0.8810662031173706,1.8579005002975464,9.62947940826416,
1557221125181,0.05745664957879187,-0.8810662031173706,1.8483237028121948,9.550470352172852,1013.009033203125
1557221125231,0.09123059883835244,-0.7948749661445618,1.7836803197860718,9.655815124511719,
1557221125297,0.04649476718540501,-0.8427590131759644,1.8818424940109253,9.581595420837402,
1557221125366,0.06472802060959158,-0.7852981686592102,1.802833914756775,9.607931137084961,1013.01806640625
1557221125414,0.031362695443577136,-0.8140285611152649,1.8124107122421265,9.603142738342285,
1557221125481,0.0890364136053737,-0.8619126081466675,1.8195933103561401,9.684545516967773,
1557221125532,0.04490626623734756,-0.8523358106613159,1.8124107122421265,9.560047149658203,1013.010009765625
1557221125598,,-0.7876923680305481,,,
1557221125599,0.10114991306847096,,1.8291701078414917,9.50498104095459,
1557221125666,0.0466659573589075,-0.8307880163192749,1.8411411046981812,9.63187313079834,
1557221125716,0.04839817053972931,-0.8259995579719543,1.8291701078414917,9.569623947143555,1012.998291015625
1557221125782,0.12614771579179956,-0.7805097699165344,1.745373010635376,9.725247383117676,
1557221125850,0.08380550921134983,-0.8619126081466675,1.802833914756775,9.66299819946289,
1557221125899,,-0.8044517636299133,,,
1557221125900,0.05124549302194578,,1.8363527059555054,9.560047149658203,1012.995849609375
1557221125966,0.1029461047708098,-0.7110779285430908,1.867477297782898,9.564835548400879,
1557221126017,0.055235239923225786,-0.7757213711738586,1.86508309841156,9.622296333312988,
1557221126084,,-0.7948749661445618,,,
1557221126086,0.07745247698011229,,1.764526605606079,9.66539192199707,1013.001708984375
1557221126150,,-0.8020575642585754,,,
1557221126151,0.23569224855024093,,1.7501614093780518,9.378087997436523,
1557221126202,0.04555480744822514,-0.8212111592292786,1.7812861204147339,9.583989143371582,
1557221126268,0.19238982212057437,-0.8307880163192749,1.8698714971542358,9.457097053527832,1012.999267578125
1557221126323,,-0.7015010714530945,,,
1557221126325,,,1.702277421951294,,
1557221126326,0.25482219399058376,,,9.864110946655273,
1557221126384,0.052997959102447575,-0.8188169598579407,1.7501614093780518,9.624691009521484,
1557221126437,0.1829947581973592,-0.7445967197418213,1.6927006244659424,9.44752025604248,1013.001953125
1557221126496,0.029664862740444706,-0.7254431247711182,1.7357962131500244,9.617507934570312,
1557221126557,0.10031936097672307,-0.7134721279144287,1.7573440074920654,9.713275909423828,
1557221126622,0.09253640764034346,-0.7637503147125244,1.7142484188079834,9.533711433410645,1012.997802734375
1557221126677,0.09366911140354865,-0.7445967197418213,1.7166426181793213,9.531316757202148,
1557221126738,0.10064007866765486,-0.8068459630012512,1.7597382068634033,9.6989107131958,
1557221126798,0.0830632641644485,-0.811634361743927,1.7357962131500244,9.667786598205566,1012.9921875
1557221126858,,-0.6536170840263367,1.7573440074920654,,
1557221126859,0.14729488572857025,,,9.485827445983887,
1557221126921,,-0.6392518281936646,,,
1557221126922,0.15796628342616736,,1.699883222579956,9.746794700622559,
1557221126980,0.17972939458985662,-0.8068459630012512,1.9153614044189453,9.555258750915527,1012.996826171875
1557221127041,0.2639562697858069,-0.7015010714530945,1.7860745191574097,9.375694274902344,
1557221127100,0.1334111801026413,-0.5171475410461426,1.9129672050476074,9.569623947143555,
1557221127160,,-0.6488286852836609,,,
1557221127161,0.03148808901701743,,1.8842366933822632,9.581595420837402,1012.989990234375
1557221127224,0.061983086892108456,-0.6344634294509888,1.8579005002975464,9.62947940826416,
1557221127282,0.12374393251384318,-0.6320692300796509,1.9249382019042969,9.478644371032715,
1557221127343,0.2832309051568814,-0.47644615173339844,1.9847931861877441,9.797073364257812,1012.984375
1557221127406,0.21888082713339024,-0.7086837291717529,1.9297266006469727,9.390059471130371,
1557221127463,0.04862378756726469,-0.6129156351089478,1.8794482946395874,9.57201862335205,
1557221127526,0.1752393422674898,-0.5722141861915588,1.987187385559082,9.751583099365234,1012.989013671875
1557221127586,,-0.608127236366272,,,
1557221127587,,,1.900996208190918,,
1557221127588,0.040666082762132426,,,,
1557221127589,,,,9.560047149658203,
1557221127645,0.10405976850344224,-0.524330198764801,1.9800047874450684,9.57441234588623,
1557221127706,0.14413241825673254,-0.6200982332229614,2.006340980529785,9.459490776062012,1012.989990234375
1557221127765,,-0.5817909836769104,,,
1557221127766,0.08675940286723637,,1.9153614044189453,9.526528358459473,
1557221127828,0.07093718313364857,-0.524330198764801,1.9776105880737305,9.63187313079834,
1557221127888,,-0.608127236366272,,,
1557221127889,0.0872887213826716,,2.0446481704711914,9.53849983215332,1012.9892578125
1557221127948,0.14172542679314135,-0.5578489899635315,1.9177556037902832,9.461885452270508,
1557221128008,0.11780651238578352,-0.5410895943641663,1.8507179021835327,9.627084732055664,
1557221128070,0.12051344074726453,-0.45489832758903503,2.0254945755004883,9.634267807006836,1012.997314453125
1557221128130,0.039505348189340456,-0.5722141861915588,1.968033790588379,9.583989143371582,
1557221128189,,-0.4596867263317108,,,
1557221128190,0.09094029878622253,,1.946485996246338,9.576807022094727,
1557221128252,0.2455728255130495,-0.5315127968788147,2.078166961669922,9.801861763000488,1012.99609375
1557221128311,0.19235860604523,-0.5291185975074768,1.946485996246338,9.402029991149902,
1557221128369,0.20744553985945277,-0.5506663918495178,1.9345149993896484,9.402029991149902,
1557221128436,0.1662637651273316,-0.3423708379268646,2.0374655723571777,9.658209800720215,1013.001953125
1557221128492,0.13068021779908606,-0.4596867263317108,2.097320795059204,9.555258750915527,
1557221128550,0.09160297286975193,-0.42616790533065796,2.011129379272461,9.581595420837402,
1557221128612,0.15411428923566456,-0.49320554733276367,1.9608511924743652,9.442731857299805,1013.0029296875
1557221128670,0.11855238954683116,-0.5793967843055725,1.98958158493042,9.495404243469238,
1557221128731,0.1369487938791772,-0.47644615173339844,1.9488801956176758,9.715670585632324,
1557221128793,,-0.5123591423034668,2.030282974243164,,
1557221128794,0.06793248535501441,,,9.531316757202148,1012.997802734375
1557221128852,0.1308464926456591,-0.545877993106842,2.0207061767578125,9.464279174804688,
1557221128913,,-0.5363011956214905,1.98958158493042,,
1557221128914,0.10338365942072579,,,9.48343276977539,
1557221129030,,-0.8236053586006165,,,
1557221129031,0.3604066181252095,,2.22660756111145,9.734824180603027,1012.994384765625
1557221129055,0.38794429288693616,-1.048660397529602,2.1068975925445557,9.409213066101074,
1557221129094,,-1.922544002532959,,,
1557221129095,4.278928252465341,,0.3471592366695404,5.796362400054932,
1557221129153,0.7142758641244997,-1.0749965906143188,1.7405846118927002,9.239224433898926,1012.984619140625
1557221129213,2.840253084215817,-2.212242364883423,0.3998316824436188,8.003816604614258,
1557221129273,,1.3263877630233765,,,
1557221129274,1.9540605059366012,,0.2968810200691223,9.351752281188965,
1557221129333,,0.9744400978088379,,,
1557221129334,0.3458523724478044,,1.8626888990402222,9.730035781860352,1012.98193359375
1557221129394,2.303077057503785,1.5107412338256836,-0.3447650372982025,10.041281700134277,
1557221129455,2.8512773763169337,4.479551315307617,-2.078166961669922,8.844181060791016,
1557221129516,5.066376885275349,8.29830265045166,-1.7717092037200928,5.731719017028809,1013.004150390625
1557221129576,,9.35893440246582,,,
1557221129577,5.034686129502754,,1.647210717201233,6.536170482635498,
1557221129636,12.092382861396738,1.194706678390503,-3.892971992492676,18.77293586730957,
1557221129698,4.137647717192921,9.102754592895508,-1.601720929145813,3.864241600036621,1013.11328125
1557221129758,1.759896564586977,6.773196697235107,-2.4229321479797363,4.72376012802124,
1557221129819,4.175572275012437,6.258443355560303,-1.6376339197158813,1.946485996246338,
1557221129882,1.8701311474470803,8.571242332458496,0.5147533416748047,6.294356346130371,1013.120849609375
1557221129943,,13.651738166809082,-0.2322375625371933,,
1557221129944,4.546383126517282,,,4.410119533538818,
1557221130003,,8.65743350982666,2.513911724090576,,
1557221130004,2.779386860723732,,,1.1899182796478271,
1557221130062,,8.614337921142578,1.702277421951294,,
1557221130063,2.5959287937138167,,,3.0310592651367188,1012.99755859375
1557221130122,0.8384840493320025,10.304644584655762,1.3335703611373901,0.6751648783683777,
1557221130182,,7.817068576812744,,,
1557221130183,5.798065310112679,,-0.16998831927776337,-5.585672378540039,
1557221130244,,8.83939266204834,,,
1557221130245,6.364214581068643,,2.5019407272338867,-8.118738174438477,1012.98486328125
1557221130305,,9.581595420837402,,,
1557221130306,3.7801037777172866,,-1.623268723487854,-3.177105665206909,
1557221130365,,8.65743350982666,,,
1557221130366,2.2600750525849027,,-0.7829039692878723,-4.412513732910156,
1557221130427,2.922313636861639,9.141061782836914,2.449268341064453,-2.2840683460235596,1012.997802734375
1557221130486,3.3221981662941076,8.2312650680542,3.117250680923462,-5.027823448181152,
1557221130545,0.7269838403508823,8.056488990783691,-0.13407529890537262,-4.2760443687438965,
1557221130605,1.6202497744213549,7.800309181213379,-1.4437036514282227,,1013.01123046875
1557221130606,,,,-3.378218650817871,
1557221130667,,8.33182144165039,,,
1557221130668,1.1779744929902172,,-2.3942017555236816,-4.541800498962402,
1557221130727,3.4707902286657095,10.02691650390625,1.2066776752471924,-4.20421838760376,
1557221130787,0.5372937527552332,8.753201484680176,-1.9919757843017578,-5.114014625549316,1013.006103515625
1557221130847,1.0815890403561919,7.42681360244751,-2.008735179901123,-5.600037574768066,
1557221130906,,8.683769226074219,,,
1557221130907,0.7590428618917461,,-2.427720546722412,-5.461174011230469,
1557221130966,,10.220847129821777,,,
1557221130967,2.595579857694318,,-1.9393033981323242,-3.6607344150543213,1012.91455078125
1557221131027,1.8107185817311762,9.002198219299316,-1.2665326595306396,-5.990292549133301,
1557221131086,,8.135497093200684,,,
1557221131087,0.35513929673164296,,-1.7262194156646729,-4.776432514190674,
1557221131147,,9.289502143859863,,,
1557221131148,4.179139174386467,,-5.329493045806885,-2.4372973442077637,1012.900390625
1557221131208,1.4211281292548963,8.106766700744629,-2.9041666984558105,-5.834669589996338,
1557221131268,,8.355764389038086,1.4437036514282227,,
1557221131269,4.460338011108558,,,-2.1332337856292725,
1557221131328,,7.649474620819092,,,
1557221131329,1.163485646528585,,-2.691082715988159,-3.804386615753174,1013.0341796875
1557221131389,2.5998644169888654,7.33583402633667,-4.6734819412231445,-4.381389141082764,
1557221131448,,7.333439826965332,,,
1557221131449,3.261866254383649,,-6.189011573791504,-5.284003257751465,
1557221131508,,11.262324333190918,-4.599261283874512,,1013.1162109375
1557221131509,4.46670378674318,,,,
1557221131510,,,,-7.2137298583984375,
1557221131570,9.522150818022778,11.683704376220703,-1.5658079385757446,0.6823474764823914,
1557221131629,,4.091690540313721,,,
1557221131630,14.853905346013226,,8.954314231872559,-14.511256217956543,
1557221131691,,8.339004516601562,,,
1557221131692,2.1182061591742367,,-2.762908697128296,-6.7492547035217285,1013.090087890625
1557221131754,1.8441599373997049,5.870582580566406,-3.2609026432037354,-5.954379558563232,
1557221131814,1.4808849061834408,8.573636054992676,-2.248155355453491,-5.868188381195068,
1557221131874,7.496780976265981,7.067683219909668,-5.791574001312256,-11.63342571258545,1013.069580078125
1557221131934,0.7201836841114363,7.73087739944458,-1.5873557329177856,-6.2392897605896,
1557221135198,2.136775879035179,5.896918773651123,-1.237802267074585,-5.341464042663574,1013.01953125
1557221135238,6.260994662887134,0.730231523513794,1.8938134908676147,-9.734824180603027,
1557221135298,5.080509130841559,1.381454348564148,1.8986018896102905,-9.66299819946289,1013.06103515625
1557221135359,,1.9847931861877441,,,
1557221135360,4.220938785863731,,2.233790159225464,-8.860940933227539,
1557221135421,4.479610450702054,2.1811177730560303,2.9328970909118652,-10.177751541137695,
1557221135481,,2.255337953567505,,,
1557221135482,3.709817239418963,,3.1651346683502197,,1013.072265625
1557221135483,,,,-8.451532363891602,
1557221135542,3.900449306331229,0.49799394607543945,2.3582887649536133,-9.301473617553711,
1557221135603,4.119238094878688,-0.3423708379268646,2.097320795059204,-10.278307914733887,
1557221135663,,0.4572925269603729,,,
1557221135664,2.894948664129355,,2.1140801906585693,-9.758766174316406,1013.073974609375
1557221135725,2.618435325926686,0.48602294921875,2.2385785579681396,-9.44752025604248,
1557221135785,1.9043720563083955,1.094150185585022,2.1595699787139893,-9.466673851013184,
1557221135832,1.5100989522784947,1.192312479019165,1.6855180263519287,,
1557221135833,,,,-8.923190116882324,
1557221135859,1.2845811107681024,1.2521674633026123,1.4532804489135742,-8.868123054504395,1013.06640625
1557221135866,1.0182677877114863,1.3407529592514038,1.1779472827911377,-9.011775016784668,
1557221135885,,1.0773907899856567,,,
1557221135886,1.1247606022749062,,0.6488286852836609,-9.557653427124023,
1557221135906,1.4267132782823337,0.8547300100326538,0.23702596127986908,-9.77791976928711,
1557221135928,1.6247289871756454,0.6177040338516235,0.014365210197865963,-9.524134635925293,
1557221135946,,0.7326257228851318,-0.14844051003456116,,
1557221135947,1.5470681888665436,,,-9.576807022094727,
1557221135966,,0.7038952708244324,,,
1557221135967,1.3706419545458763,,0.043095629662275314,-9.653421401977539,
1557221135986,0.9245322127189737,0.8020575642585754,0.689530074596405,,
1557221135987,,,,-9.500192642211914,
1557221136007,0.9773969518389551,0.8140285611152649,1.6831238269805908,-9.63187313079834,
1557221136027,1.4527763850924882,0.8475474119186401,2.2577321529388428,-10.299856185913086,1013.0595703125
1557221136047,1.4966690909373834,0.8643068075180054,2.3702597618103027,-10.359710693359375,
1557221136069,1.4160729547931168,0.7996633648872375,2.4612393379211426,-10.002974510192871,
1557221136089,1.1366457047212286,0.9050082564353943,2.2864625453948975,-9.63187313079834,
1557221136108,,0.9193734526634216,,,
1557221136109,0.895512105584124,,1.8842366933822632,-9.806650161743164,
1557221136128,,0.9552865028381348,,,
1557221136129,0.7856850432862091,,1.7262194156646729,-9.694122314453125,
1557221136148,,0.9840168952941895,,,
1557221136149,0.8911821061820583,,1.9704279899597168,-9.660603523254395,
1557221136168,,0.9792284965515137,2.4468741416931152,,
1557221136169,1.2191984867542116,,,-9.552865028381348,
1557221136189,1.5768370707785164,1.1085153818130493,2.959233283996582,-9.363722801208496,
1557221136208,,1.0678139925003052,,,
1557221136209,1.8712278568891794,,3.3207578659057617,-9.402029991149902,1013.048583984375
1557221136228,,1.3335703611373901,3.1866824626922607,,
1557221136229,1.657026720557886,,,-9.129091262817383,
1557221136248,1.337271219812247,1.2306196689605713,2.920926094055176,-9.368511199951172,
1557221136269,1.009379802019253,1.400607943534851,2.6623523235321045,-9.615114212036133,
1557221136290,0.5327528285287554,1.4317326545715332,2.1547815799713135,-9.746794700622559,
1557221136310,0.12409234573148013,1.577778935432434,1.7501614093780518,-9.588777542114258,
1557221136330,0.31720325966380203,1.7405846118927002,1.5298948287963867,-9.624691009521484,
1557221136350,0.4850598078160139,1.8770540952682495,1.4748282432556152,,
1557221136351,,,,-9.564835548400879,
1557221136371,0.43888806784461815,1.7693150043487549,1.4197616577148438,-9.588777542114258,
1557221136391,0.22567416195739726,1.4867992401123047,1.5322890281677246,-9.72285270690918,1013.037353515625
1557221136412,0.26069409216166733,1.2976573705673218,1.6759412288665771,-9.840168952941895,
1557221136433,,0.8954314589500427,1.721431016921997,,
1557221136434,0.6096147896852393,,,-10.086771965026855,
1557221136452,0.4098121289392199,1.3431471586227417,2.027888774871826,-9.639056205749512,
1557221136471,,0.5291185975074768,2.075772762298584,,
1557221136472,0.727606607668329,,,-9.701305389404297,
1557221136492,,0.05985504388809204,,,
1557221136493,1.1642935094814808,,2.298433542251587,-9.643844604492188,
1557221136514,,-0.08619125932455063,,,
1557221136515,1.3274589663699345,,2.47560453414917,-9.454702377319336,
1557221136535,1.676074306943896,-0.524330198764801,2.5474305152893066,-9.473855972290039,
1557221136555,1.1844980543321093,0.19393034279346466,2.7030537128448486,-9.519346237182617,
1557221136575,1.1067644485588661,-0.09576806426048279,2.319981336593628,-9.706093788146973,1013.049072265625
1557221136595,0.9852690194285008,-0.10534487664699554,1.8507179021835327,-9.959878921508789,
1557221136615,0.5939631079655021,0.22744916379451752,1.678335428237915,-9.832986831665039,
1557221136635,,0.2777273952960968,,,
1557221136636,0.5144090475723913,,1.9153614044189453,-9.715670585632324,
1557221136655,0.5653624025147869,0.21308395266532898,2.0853497982025146,-9.634267807006836,
1557221136675,0.5723524320726533,0.16998831927776337,2.1475989818573,-9.519346237182617,
1557221136695,0.4236317192686123,0.3447650372982025,2.142810583114624,-9.41400146484375,
1557221136715,0.49589850120348705,0.19153612852096558,2.229001760482788,,
1557221136716,,,,-9.605537414550781,
1557221136736,,0.14604631066322327,,,
1557221136737,0.4299048827561986,,2.099714994430542,-9.720458984375,
1557221136755,0.3758102247206396,0.21547815203666687,2.166752576828003,-9.706093788146973,1013.04052734375
1557221136775,0.14390393675685545,0.30885201692581177,1.9249382019042969,-9.634267807006836,
1557221136795,0.10519333483072539,0.44771572947502136,1.9704279899597168,-9.701305389404297,
1557221136815,0.08136101083024905,0.35913026332855225,2.0231003761291504,-9.59596061706543,
1557221136835,0.18634600963370807,0.2753331959247589,2.0925323963165283,-9.500192642211914,
1557221136855,,0.3519476354122162,2.1475989818573,,
1557221136856,0.2008017310595082,,,-9.481039047241211,
1557221136875,0.28539643558212446,0.2513911724090576,2.2697031497955322,-9.560047149658203,
1557221136895,,0.08140286058187485,2.3080103397369385,,
1557221136896,0.378130758257441,,,-9.581595420837402,
1557221136915,0.3642429011261233,0.031124621629714966,2.250549554824829,-9.674968719482422,
1557221136935,0.4204288881672278,-0.12689268589019775,2.145204782485962,-9.660603523254395,1013.033203125
1557221136955,0.4463508279409215,-0.2082955539226532,1.9800047874450684,-9.677363395690918,
1557221136975,0.4430062320197682,-0.23702596127986908,2.0614075660705566,-9.66539192199707,
1557221136995,0.40840997884853286,-0.20350714027881622,2.1045033931732178,,
1557221136996,,,,-9.75637149810791,
1557221137015,0.49927262208064893,-0.2753331959247589,2.1715409755706787,-9.859322547912598,
1557221137035,,-0.2082955539226532,,,
1557221137055,0.3282202400770071,-0.17956513166427612,2.145204782485962,-9.799467086791992,
1557221137075,0.2539022151919875,-0.15083470940589905,2.185906171798706,-9.701305389404297,
1557221137095,0.20064407850623076,-0.13168109953403473,2.1356279850006104,-9.706093788146973,
1557221137115,0.14999159600636836,-0.09576806426048279,2.183511972427368,-9.624691009521484,1013.042724609375
1557221137135,0.18999066731470526,-0.009576806798577309,2.2840683460235596,-9.576807022094727,
1557221137155,0.28310850470113497,-0.06703764945268631,2.387019157409668,-9.600749015808105,
1557221137176,,-0.11013327538967133,,,
1557221137177,0.2563044193680482,,2.367865562438965,-9.588777542114258,
1557221137197,0.3363193958314905,-0.1412578970193863,2.4612393379211426,-9.603142738342285,
1557221137216,,-0.14844051003456116,,,
1557221137217,0.2764253319277292,,2.3965959548950195,-9.461885452270508,
1557221137236,,-0.19632454216480255,,,
1557221137237,0.2367840774335098,,2.31758713722229,-9.418789863586426,
1557221137256,,-0.19393034279346466,,,
1557221137257,0.19539903631031255,,2.300827741622925,-9.445125579833984,
1557221137276,,-0.31124621629714966,,,
1557221137277,0.16853101460231565,,2.190694570541382,-9.57441234588623,
1557221137296,,-0.3447650372982025,,,
1557221137297,0.19293482246678834,,2.1308395862579346,-9.646238327026367,1013.03759765625
1557221137317,0.2906528746660451,-0.21787235140800476,2.3127987384796143,-9.806650161743164,
1557221137336,,-0.5841852426528931,2.0183119773864746,,
1557221137337,0.4116964576665161,,,-9.72285270690918,
1557221137359,0.2533842148838902,-0.4596867263317108,2.1164743900299072,-9.68694019317627,
1557221137376,0.33096540704407046,-0.5315127968788147,2.054224967956543,-9.715670585632324,
1557221137397,0.26394383568807167,-0.23702596127986908,2.049436569213867,-9.81143856048584,
1557221137417,,-0.10773907601833344,,,
1557221137418,0.2652894593513424,,2.051830768585205,-9.751583099365234,
1557221137437,,-0.1628057211637497,2.0925323963165283,,
1557221137438,0.19645770974597956,,,-9.6989107131958,
1557221137457,,-0.2561795711517334,2.0590133666992188,,
1557221137458,0.15479715944554548,,,-9.485827445983887,
1557221137478,,-0.727837324142456,2.1547815799713135,,
1557221137479,0.47154589348858394,,,-9.301473617553711,1013.031982421875
1557221137497,0.7978758043694211,-1.137245774269104,2.3726539611816406,-9.38048267364502,
1557221137517,1.0055217287323133,-1.37906014919281,2.3726539611816406,-9.548076629638672,
1557221137537,0.9961674980837478,-1.3503297567367554,2.410961151123047,-9.332598686218262,
1557221137557,0.7288716037117001,-1.113303780555725,2.164358377456665,-9.493009567260742,
1557221137577,0.596893197426336,-0.8140285611152649,2.030282974243164,-9.90241813659668,
1557221137597,0.026344083889528684,-0.3447650372982025,2.231395959854126,-9.564835548400879,
1557221137617,0.310131755217138,-0.16998831927776337,2.255337953567505,-9.794678688049316,
1557221137637,,-0.22026655077934265,,,
1557221137638,0.286288860069575,,2.2026655673980713,-9.804255485534668,
1557221137660,,-0.28730419278144836,2.3798365592956543,,
1557221137661,0.2753066347430532,,,-9.765948295593262,1013.0361328125
1557221137678,,-0.27054479718208313,,,
1557221137679,0.3545352079490822,,2.1045033931732178,-9.876082420349121,
1557221137699,,-0.11971008777618408,2.296039342880249,,
1557221137700,0.3027912455639357,,,-9.782708168029785,
1557221137721,0.1988252793203987,-0.13168109953403473,2.3558945655822754,-9.59835433959961,
1557221137740,,0.0694318488240242,,,
1557221137741,0.5788011463214566,,2.4444799423217773,-9.940725326538086,
1557221137760,0.5706305466180746,0.19632454216480255,2.363077163696289,,
1557221137761,,,,-9.81143856048584,
1557221137781,0.3454953770963095,-0.08619125932455063,2.537853717803955,-9.610325813293457,
1557221137801,0.33241086464207326,-0.14604631066322327,2.5761611461639404,-9.485827445983887,
1557221137821,0.6610475200590689,0.07422025501728058,2.5761611461639404,-10.067618370056152,
1557221137840,,0.011971008032560349,2.322375535964966,,
1557221137841,0.242848156627023,,,-9.361329078674316,1013.0341796875
1557221137860,0.2508179723882654,-0.19632454216480255,2.4133553504943848,-9.725247383117676,
1557221137880,0.30958155181409824,-0.4118026793003082,2.365471363067627,-9.610325813293457,
1557221137900,0.5517653743259482,-0.6847416758537292,2.2026655673980713,-9.495404243469238,
1557221137920,0.4042132378649516,-0.4668693244457245,2.188300371170044,-9.327810287475586,
1557221137939,,-0.5363011956214905,1.946485996246338,,
1557221137940,0.4936276362694798,,,-9.569623947143555,
1557221137960,0.5817712292602977,-0.4572925269603729,1.8171991109848022,-9.830592155456543,
1557221137979,,-0.5171475410461426,,,
1557221137980,0.6743070144606982,,1.8076223134994507,-9.931148529052734,
1557221137999,0.49507670641457036,-0.4572925269603729,1.8579005002975464,-9.612719535827637,
1557221138020,0.32773747721171154,-0.33758243918418884,1.98958158493042,-9.576807022094727,1013.031982421875
1557221138039,,-0.090979665517807,,,
1557221138040,0.07707302415488579,,2.1068975925445557,-9.607931137084961,
1557221138060,0.32677739296189384,0.2106897532939911,2.1045033931732178,-9.758766174316406,
1557221138080,0.4449947294180276,0.38546648621559143,2.1068975925445557,-9.6989107131958,
1557221138100,0.3922077538477133,0.35673606395721436,2.1787235736846924,-9.521739959716797,
1557221138119,,0.47884035110473633,2.1284453868865967,,
1557221138120,0.507665113921785,,,-9.682151794433594,
1557221138140,0.45714722490512477,0.43335050344467163,2.164358377456665,-9.696516990661621,
1557221138160,0.2961059195400563,0.2753331959247589,2.2218191623687744,-9.62947940826416,
1557221138179,,0.22505496442317963,2.3247697353363037,,
1557221138180,0.3419079954170602,,,-9.744400978088379,
1557221138199,,0.06224924325942993,,,
1557221138200,0.29445583582131535,,2.4157495498657227,-9.658209800720215,1013.0341796875
1557221138220,0.4644417827944156,-0.2585737705230713,2.5450363159179688,-9.646238327026367,
1557221138239,,-0.45010992884635925,2.604891538619995,,
1557221138240,0.6064372530538337,,,-9.512163162231445,
1557221138260,0.6222055189434808,-0.4884171485900879,2.607285737991333,-9.454702377319336,
1557221138280,0.4479025091846631,-0.28730419278144836,2.5713725090026855,-9.610325813293457,
1557221138299,0.2943824736340947,-0.090979665517807,2.4396915435791016,,
1557221138300,,,,-9.713275909423828,
1557221138319,,0.07900865375995636,2.2433669567108154,,
1557221138320,0.2963404360083749,,,-9.81143856048584,
1557221138339,,0.08379705995321274,,,
1557221138340,0.32846672565067586,,2.0805611610412598,-9.837775230407715,
1557221138359,,0.0694318488240242,,,
1557221138360,0.27139640315876395,,2.030282974243164,-9.751583099365234,
1557221138379,,-0.07661445438861847,,,
1557221138380,0.19943466827309328,,1.9943699836730957,-9.655815124511719,1013.033935546875
1557221138400,0.14915139041051775,-0.0694318488240242,2.054224967956543,-9.658209800720215,
1557221138420,0.15307142016079617,-0.0933738648891449,2.10210919380188,-9.701305389404297,
1557221138440,0.12270887439591766,-0.10295066982507706,2.1068975925445557,-9.670180320739746,
1557221138461,,-0.09816227108240128,2.145204782485962,,
1557221138462,0.0392014594832268,,,-9.59835433959961,
1557221138482,0.08238895796241952,-0.1867477297782898,2.1811177730560303,-9.607931137084961,
1557221138503,,-0.4381389021873474,2.1595699787139893,,
1557221138504,0.30211000352177075,,,-9.569623947143555,
1557221138522,,-0.43095630407333374,2.1954829692840576,,
1557221138523,0.28598061377254913,,,-9.615114212036133,
1557221138542,0.3474361280018589,-0.4812345504760742,2.207453966140747,-9.703699111938477,
1557221138563,0.4005546047952179,-0.5147533416748047,2.2026655673980713,-9.782708168029785,1013.036865234375
1557221138582,0.27554748342569624,-0.44532153010368347,2.250549554824829,-9.634267807006836,
1557221138603,,-0.3280056416988373,2.1499931812286377,,
1557221138604,0.12328939531224689,,,-9.548076629638672,
1557221138624,,-0.19871874153614044,,,
1557221138625,0.03670775173976489,,2.1547815799713135,-9.600749015808105,
1557221138644,0.12236601300550559,-0.22505496442317963,2.073378562927246,-9.66539192199707,
1557221138664,0.23996806697199322,-0.30885201692581177,1.98958158493042,-9.725247383117676,
1557221138684,0.24862979368668087,-0.26575639843940735,2.006340980529785,-9.773131370544434,
1557221138704,0.23724617256256827,-0.1867477297782898,1.968033790588379,-9.739612579345703,
1557221138724,0.24546094551767544,-0.1364694982767105,1.9081788063049316,-9.651026725769043,
1557221138745,0.23734253318630405,-0.10534487664699554,1.922544002532959,-9.643844604492188,1013.03076171875
1557221138765,0.2308701075400565,0.0,2.03507137298584,-9.646238327026367,
1557221138785,,-0.08140286058187485,2.169146776199341,,
1557221138786,0.12251633983379683,,,-9.600749015808105,
1557221138806,0.10361757745923242,-0.10295066982507706,2.1763293743133545,-9.53849983215332,
1557221138825,0.21486669764643038,0.016759412363171577,2.097320795059204,-9.564835548400879,
1557221138846,0.40032335041835226,0.17956513166427612,1.98958158493042,-9.557653427124023,
1557221138865,0.5712421626214891,0.3519476354122162,2.0925323963165283,-9.737217903137207,
1557221138886,0.5310266530142075,0.1628057211637497,2.0925323963165283,-9.962273597717285,
1557221138905,0.46794760692896326,0.033518824726343155,2.145204782485962,-9.96945571899414,
1557221138925,0.2099481800550548,-0.1364694982767105,2.121262788772583,-9.758766174316406,1013.030029296875
1557221138944,,-0.47884035110473633,,,
1557221138945,0.24260762138221834,,2.190694570541382,-9.593565940856934,
1557221138965,,-0.7589619159698486,,,
1557221138966,0.46463604301607403,,2.1116859912872314,-9.591172218322754,
1557221138987,0.6036536543446169,-0.9169792532920837,2.1954829692840576,-9.548076629638672,
1557221139006,,-1.0462661981582642,,,
1557221139007,0.7036030309964248,,2.22660756111145,-9.619902610778809,
1557221139026,,-1.1563993692398071,,,
1557221139027,0.7847635226413788,,2.2170307636260986,-9.72285270690918,
1557221139046,,-1.216254472732544,,,
1557221139047,0.8099462282911647,,2.188300371170044,-9.768342971801758,
1557221139066,,-1.194706678390503,,,
1557221139067,0.7250832707169376,,2.0183119773864746,-9.607931137084961,
1557221139088,0.5767386800484346,-1.05105459690094,1.9297266006469727,-9.658209800720215,
1557221139108,0.32084470822659444,-0.7876923680305481,2.0446481704711914,,1013.026123046875
1557221139109,,,,-9.739612579345703,
1557221139127,,-0.5171475410461426,2.145204782485962,,
1557221139128,0.16915857492924954,,,-9.727641105651855,
1557221139146,,-0.27054479718208313,,,
1557221139147,0.3051629391829222,,2.27209734916687,-9.658209800720215,
1557221139167,0.40294809230055123,-0.15801730751991272,2.343923568725586,-9.567230224609375,
1557221139187,0.45846861410616757,-0.08140286058187485,2.360682964324951,-9.526528358459473,
1557221139210,,-0.17717093229293823,2.3535003662109375,,
1557221139211,0.3609535956819138,,,-9.481039047241211,
1557221139228,,-0.3064578175544739,,,
1557221139229,0.28876729015503716,,2.346317768096924,-9.39245319366455,
1557221139250,0.33025806646148004,-0.10773907601833344,2.1811177730560303,-9.57201862335205,
1557221139268,0.529901250960642,0.05267243832349777,2.013523578643799,-9.775525093078613,
1557221139288,0.7780756739413413,0.22266076505184174,1.8363527059555054,,1013.016357421875
1557221139289,,,,-9.947908401489258,
1557221139349,0.2118494137362646,-0.2106897532939911,2.0207061767578125,-9.607931137084961,
1557221139408,0.4729090715910358,-0.6991068720817566,1.7190368175506592,-9.576807022094727,
1557221139469,0.41350586381465426,-0.5746083855628967,1.7190368175506592,-9.708487510681152,1013.00732421875
1557221139532,,-0.5386953949928284,,,
1557221139533,0.16368488155388497,,2.1787235736846924,-9.536105155944824,
1557221139592,0.04714729031539616,-0.4141969084739685,2.1045033931732178,-9.521739959716797,
1557221139651,0.43930651444359853,-0.33279404044151306,2.2864625453948975,,1013.002197265625
1557221139652,,,,-9.95748519897461,
1557221139711,,-0.3663128614425659,,,
1557221139712,0.1261205811061986,,2.1092917919158936,-9.653421401977539,
1557221139771,,-0.7134721279144287,,,
1557221139772,0.33635549267794657,,2.006340980529785,-9.773131370544434,
1557221139833,,0.13168109953403473,,,
1557221139834,0.640050537453518,,2.3487119674682617,-9.68694019317627,1013.013671875
1557221139895,0.4698729574438678,-0.1628057211637497,2.5115175247192383,-9.615114212036133,
1557221139954,,-0.7254431247711182,,,
1557221139955,0.2061244611438118,,2.205059766769409,-9.464279174804688,
1557221140015,,-1.0749965906143188,1.8579005002975464,,1013.020751953125
1557221140016,0.5376114596639866,,,-9.624691009521484,
1557221140075,,-1.2018892765045166,,,
1557221140076,0.5384203915083637,,2.2409727573394775,-9.533711433410645,
1557221140137,0.8122376238395796,-1.414973258972168,1.680729627609253,,
1557221140138,,,,-9.694122314453125,
1557221145199,,-0.3471592366695404,,,
1557221145200,,-0.26336219906806946,,,
1557221145201,0.7153305314084105,,1.501164436340332,-9.99100399017334,1013.02294921875
1557221145265,0.27095669296728586,-0.2561795711517334,2.0039467811584473,-9.674968719482422,1013.020263671875
1557221145278,0.3126581149639001,-0.21787235140800476,1.8698714971542358,-9.469067573547363,
1557221145298,0.12859360755133822,-0.42616790533065796,2.0374655723571777,-9.454702377319336,
1557221145317,,-0.524330198764801,2.0805611610412598,,
1557221145318,0.11690074486658336,,,-9.516951560974121,
1557221145338,0.06137018189145244,-0.4429273009300232,1.9632453918457031,-9.579200744628906,
1557221145359,0.29549998029073016,-0.2944868206977844,1.766920804977417,-9.703699111938477,
1557221145378,0.35935165495304977,-0.3758896589279175,1.6184803247451782,-9.603142738342285,
1557221145398,,-0.4884171485900879,1.623268723487854,,
1557221145399,0.3393277383355867,,,-9.526528358459473,
1557221145419,0.32120380603844084,-0.6057330369949341,1.656787633895874,-9.591172218322754,1013.004150390625
1557221145438,0.26194737540424884,-0.6751648783683777,1.800439715385437,,
1557221145439,,,,-9.634267807006836,
1557221145458,0.24581608169578612,-0.6775590777397156,1.941697597503662,-9.691728591918945,
1557221145479,0.2083933485530598,-0.6200982332229614,2.0207061767578125,-9.66539192199707,
1557221145499,0.15764706220971686,-0.5315127968788147,2.051830768585205,-9.612719535827637,
1557221145520,0.17360025107007396,-0.5003881454467773,2.0853497982025146,,
1557221145521,,,,-9.57201862335205,
1557221145540,0.12414042519636742,-0.4357447028160095,2.056619167327881,-9.619902610778809,
1557221145560,,-0.3495534360408783,,,
1557221145561,0.15905958454030816,,2.0374655723571777,-9.710882186889648,
1557221145580,,-0.3256114423274994,,,
1557221145581,0.2228739744746886,,2.10210919380188,-9.744400978088379,
1557221145602,0.2815262444510909,-0.31603461503982544,2.1954829692840576,-9.742006301879883,1012.997314453125
1557221145623,0.3025562500673594,-0.3495534360408783,2.2601263523101807,,
1557221145624,,,,-9.706093788146973,
1557221145644,0.3688788318260499,-0.24420857429504395,2.3247697353363037,,
1557221145645,,,,-9.6989107131958,
1557221145665,0.40026144409378744,-0.08140286058187485,2.2912509441375732,,
1557221145666,,,,-9.679757118225098,
1557221145684,,0.004788403399288654,,,
1557221145685,0.39593083870574985,,2.1930887699127197,-9.72285270690918,
1557221145704,0.4072915443882023,0.06703764945268631,2.209848165512085,-9.600749015808105,
1557221145725,0.46340667351995274,0.10295066982507706,2.31758713722229,-9.622296333312988,
1557221145746,0.4773236746554495,0.10295066982507706,2.3918075561523438,-9.567230224609375,
1557221145766,,0.08140286058187485,2.434903144836426,,
1557221145767,0.4619068524239495,,,-9.5624418258667,
1557221145786,,0.043095629662275314,,,
1557221145787,0.38394509363900753,,2.3942017555236816,-9.610325813293457,1012.983642578125
1557221145806,0.28686257219093836,-0.0454898327589035,2.3271639347076416,-9.6989107131958,
1557221145825,,-0.14844051003456116,,,
1557221145826,0.2976207902266939,,2.3032219409942627,-9.81143856048584,
1557221145846,0.14019449219419844,-0.2537853717803955,2.2649147510528564,-9.62947940826416,
1557221145865,0.16677668536384951,-0.2801215946674347,2.298433542251587,-9.610325813293457,
1557221145885,0.16549720039585636,-0.26575639843940735,2.300827741622925,-9.627084732055664,
1557221145905,0.18990551136219078,-0.2537853717803955,2.3271639347076416,-9.646238327026367,
1557221145924,0.16804631793090763,-0.2513911724090576,2.3127987384796143,,
1557221145925,,,,-9.63187313079834,
1557221145945,0.13069590278960558,-0.2322375625371933,2.2697031497955322,-9.639056205749512,
1557221145965,0.12312527838060694,-0.2801215946674347,2.248155355453491,,1012.99658203125
1557221145966,,,,-9.634267807006836,
1557221145985,0.15823431060856002,-0.31124621629714966,2.252943754196167,-9.66539192199707,
1557221146005,0.18887618791975377,-0.35673606395721436,2.2242133617401123,-9.691728591918945,
1557221146025,0.1562683035143509,-0.35673606395721436,2.2146365642547607,-9.648633003234863,
1557221146045,0.06445191844620038,-0.28730419278144836,2.1978771686553955,-9.593565940856934,
1557221146065,0.12128064130951258,-0.20350714027881622,2.188300371170044,-9.674968719482422,
1557221146085,0.16049169673490898,-0.10534487664699554,2.1164743900299072,-9.636661529541016,
1557221146105,0.14860463771382643,-0.1604115068912506,2.1140801906585693,-9.679757118225098,
1557221146125,0.13271171588594202,-0.2777273952960968,2.161964178085327,-9.68933391571045,
1557221146145,0.14805889156359808,-0.3232172429561615,2.1739351749420166,-9.684545516967773,1012.999755859375
1557221146165,,-0.31124621629714966,2.2385785579681396,,
1557221146166,0.15640440702543446,,,-9.682151794433594,
1557221146185,0.16202177990282943,-0.2849099934101105,2.2649147510528564,-9.684545516967773,
1557221146205,0.15405178523186897,-0.2585737705230713,2.300827741622925,,
1557221146206,,,,-9.643844604492188,
1557221146225,0.16534964551564674,-0.22266076505184174,2.3319525718688965,-9.612719535827637,
1557221146246,0.15328799958101383,-0.2537853717803955,2.3271639347076416,-9.603142738342285,
1557221146267,0.11755618274027048,-0.26575639843940735,2.2816741466522217,-9.619902610778809,
1557221146288,0.10130286040739446,-0.2801215946674347,2.233790159225464,-9.639056205749512,
1557221146308,0.1276430383823703,-0.28730419278144836,2.250549554824829,-9.660603523254395,
1557221146328,0.10388149077630443,-0.2298433631658554,2.2673089504241943,-9.63187313079834,1013.006103515625
1557221146349,0.10826043202012163,-0.18914192914962769,2.2433669567108154,-9.639056205749512,
1557221146369,0.1770696050333987,-0.12449848651885986,2.27209734916687,-9.670180320739746,
1557221146388,0.1865656739992084,-0.08858546614646912,2.248155355453491,,
1557221146389,,,,-9.660603523254395,
1557221146408,0.25137813517599084,-0.0454898327589035,2.22660756111145,-9.720458984375,
1557221146428,0.2577917495237441,-0.10295066982507706,2.2649147510528564,-9.768342971801758,
1557221146448,0.17801775715556467,-0.31603461503982544,2.2912509441375732,-9.409213066101074,
1557221146468,0.11029166309170897,-0.2777273952960968,2.2625205516815186,-9.643844604492188,
1557221146488,0.15266824056336026,-0.33997663855552673,2.2457611560821533,-9.66299819946289,
1557221146508,0.12237669071358293,-0.3232172429561615,2.2002713680267334,,1013.00439453125
1557221146509,,,,-9.636661529541016,
1557221146528,0.12990782073913285,-0.3447650372982025,2.190694570541382,-9.617507934570312,
1557221146548,0.12693597971241988,-0.3280056416988373,2.183511972427368,-9.627084732055664,
1557221146568,0.524627698860925,-0.13407529890537262,2.2242133617401123,,
1557221146569,,,,-10.06043529510498,
1557221146588,0.1978110619352597,-0.43335050344467163,2.207453966140747,-9.524134635925293,
1557221146608,,-0.40701428055763245,2.1523873805999756,,
1557221146609,0.23222215871268817,,,-9.66539192199707,
1557221146628,0.2245798920893845,-0.4429273009300232,2.2170307636260986,-9.600749015808105,
1557221146648,0.27282504565220134,-0.4118026793003082,2.1787235736846924,-9.720458984375,
1557221146668,0.07144364489052978,-0.2298433631658554,2.2242133617401123,-9.591172218322754,
1557221146688,,-0.22266076505184174,,,
1557221146689,0.06486640629165297,,2.255337953567505,-9.59596061706543,1013.02685546875
1557221146708,,-0.12210428714752197,2.3511061668395996,,
1557221146709,0.11804742415986491,,,-9.591172218322754,
1557221146729,0.18297199725259217,-0.08619125932455063,2.427720546722412,-9.605537414550781,
1557221146749,0.18520597965052238,-0.06703764945268631,2.434903144836426,-9.600749015808105,
1557221146769,0.21287932059696407,-0.035913024097681046,2.4612393379211426,-9.610325813293457,
1557221146789,0.26692670341402636,0.05985504388809204,2.4636335372924805,-9.59596061706543,
1557221146810,,0.07900865375995636,,,
1557221146811,0.2954539495117006,,2.499546527862549,-9.617507934570312,
1557221146833,0.2690164653372558,0.047884032130241394,2.513911724090576,-9.615114212036133,
1557221146852,0.25598653880133104,0.038307227194309235,2.5019407272338867,-9.639056205749512,
1557221146873,0.25803856619457693,0.08379705995321274,2.492363929748535,,1013.029541015625
1557221146874,,,,-9.59596061706543,
1557221146892,,0.08619125932455063,2.4444799423217773,,
1557221146893,0.22480046809368762,,,-9.576807022094727,
1557221146912,0.19459376651953142,0.07661445438861847,2.3918075561523438,-9.576807022094727,
1557221146932,,-0.002394201699644327,2.3487119674682617,,
1557221146933,0.12280115312350773,,,-9.583989143371582,
1557221146952,0.07927867699380978,-0.08858546614646912,2.3582887649536133,-9.593565940856934,
1557221146972,0.16777055713459194,-0.15083470940589905,2.3056161403656006,-9.66539192199707,
1557221146991,0.14656638075239492,-0.1604115068912506,2.2625205516815186,,
1557221146992,,,,-9.603142738342285,
1557221147011,0.2222007559592412,-0.272938996553421,2.231395959854126,-9.591172218322754,
1557221147031,0.2600735868113614,-0.30885201692581177,2.1978771686553955,-9.57441234588623,
1557221147051,,-0.38546648621559143,,,
1557221147052,0.32059467493874433,,2.185906171798706,-9.469067573547363,1013.0283203125
1557221147072,0.36456214525325525,-0.4596867263317108,2.209848165512085,-9.533711433410645,
1557221147092,0.35635286987538556,-0.3878606855869293,2.142810583114624,-9.641449928283691,
1557221147113,0.3446963677947283,-0.2537853717803955,2.209848165512085,-9.806650161743164,
1557221147132,0.3325830810586222,-0.12210428714752197,2.346317768096924,-9.849745750427246,
1557221147152,,0.12449848651885986,,,
1557221147153,0.37766037445909584,,2.4468741416931152,-9.780313491821289,
1557221147173,0.5558740792169272,0.3758896589279175,2.5689783096313477,-9.648633003234863,
1557221147193,0.8009753480468116,0.6105214357376099,2.7126305103302,-9.57441234588623,
1557221147214,0.8965585050497206,0.6224924325942993,2.9233202934265137,-9.524134635925293,
1557221147233,0.8520654015803314,0.524330198764801,3.002328872680664,-9.406818389892578,1013.0107421875
1557221147253,0.5831531745997585,0.2537853717803955,2.892195701599121,-9.346963882446289,
1557221147273,0.22230445107042082,-0.08619125932455063,2.6599581241607666,-9.411606788635254,
1557221147293,0.36529024482204636,-0.45250412821769714,2.3511061668395996,-9.593565940856934,
1557221147313,0.7576753944563351,-0.8020575642585754,2.185906171798706,-9.758766174316406,
1557221147333,1.0915241480876452,-1.1252747774124146,1.987187385559082,-9.785101890563965,
1557221147353,1.127773733215304,-1.2042834758758545,1.946485996246338,-9.761159896850586,
1557221147373,1.0140553008354454,-1.1468225717544556,1.965639591217041,-9.734824180603027,
1557221147393,,-0.9768342971801758,,,
1557221147394,0.7567926209882407,,2.10210919380188,-9.682151794433594,
1557221147413,0.4324698100275158,-0.7230489253997803,2.248155355453491,-9.588777542114258,1013.01025390625
1557221147433,0.20040699072147294,-0.45250412821769714,2.2194249629974365,-9.53849983215332,
1557221147453,0.1339351107499507,-0.3064578175544739,2.252943754196167,-9.454702377319336,
1557221147473,,-0.15322890877723694,,,
1557221147474,0.17137735020607106,,2.3319525718688965,-9.588777542114258,
1557221147493,0.2703288894712186,-0.05267243832349777,2.4444799423217773,-9.648633003234863,
1557221147514,0.3742535632670349,0.011971008032560349,2.6001031398773193,-9.674968719482422,
1557221147534,0.41690729067648025,0.06464344263076782,2.695871114730835,-9.528923034667969,
1557221147554,0.5108007977264347,0.14844051003456116,2.7509377002716064,-9.38048267364502,
1557221147574,0.5150183085085265,0.19153612852096558,2.7317841053009033,-9.375694274902344,
1557221147594,0.4259383585439133,0.15801730751991272,2.674323320388794,-9.464279174804688,1013.01318359375
1557221147614,0.4558940825206534,0.10773907601833344,2.75812029838562,-9.660603523254395,
1557221147634,0.44581542142496167,0.026336219161748886,2.7964274883270264,-9.696516990661621,
1557221147654,0.2987677693968108,-0.08619125932455063,2.6815059185028076,-9.66539192199707,
1557221147674,0.21395758891200561,-0.12449848651885986,2.5234885215759277,-9.68933391571045,
1557221147693,,-0.1364694982767105,,,
1557221147694,0.31457353738770516,,2.322375535964966,-9.794678688049316,
1557221147713,,-0.2968810200691223,2.365471363067627,,
1557221147714,0.5797322587575899,,,-10.062829971313477,
1557221147733,,-0.5602431893348694,2.5019407272338867,,
1557221147734,0.4349222022950092,,,-9.3828763961792,
1557221147754,0.6293689613090468,-0.6177040338516235,2.698265314102173,-9.246406555175781,
1557221147774,0.9527307539241932,-0.6248866319656372,2.9041666984558105,-10.101137161254883,1013.015869140625
1557221147794,1.0170434290147472,-0.4644751250743866,2.9089550971984863,-10.24000072479248,
1557221147814,0.6213764770757308,-0.49320554733276367,2.6431987285614014,-9.41400146484375,
1557221147834,0.3434148151309531,-0.06703764945268631,2.537853717803955,-9.39245319366455,
1557221147854,0.611820497978636,0.646434485912323,2.3271639347076416,-9.739612579345703,
1557221147874,0.9419391753995772,1.0079588890075684,2.073378562927246,-9.885659217834473,
1557221147894,0.9734544963791802,1.137245774269104,2.0590133666992188,-9.694122314453125,
1557221147914,0.6835641473082538,0.8834604024887085,2.126051187515259,-9.648633003234863,
1557221147934,0.2051700930780567,0.3734954595565796,2.0398597717285156,-9.658209800720215,
1557221147955,0.243675414313773,-0.019153613597154617,2.0231003761291504,-9.583989143371582,1013.0107421875
1557221147975,0.4630597928122894,-0.23702596127986908,1.9752163887023926,-9.488221168518066,
1557221147996,0.4965191616594205,-0.2753331959247589,1.946485996246338,-9.490615844726562,
1557221148016,0.44354328256757364,-0.20111294090747833,1.8531121015548706,,
1557221148017,,,,-9.488221168518066,
1557221148036,0.3923843436925699,-0.09576806426048279,1.7621324062347412,-9.47146224975586,
1557221148056,0.2849289497687464,0.05985504388809204,1.7836803197860718,-9.435548782348633,
1557221148076,0.21867629921360274,0.27054479718208313,1.7764976024627686,-9.481039047241211,
1557221148096,0.31849881494367505,0.3208230137825012,1.6735470294952393,-9.457097053527832,
1557221148116,0.4998523225851113,0.38067805767059326,1.501164436340332,-9.399636268615723,
1557221148136,0.7405117189715117,0.33518823981285095,1.2952631711959839,-9.227252960205078,1013.0087890625
1557221148156,0.9043616648589181,0.2106897532939911,1.0773907899856567,-9.255983352661133,
1557221148176,1.0001184870142272,0.22744916379451752,0.9409212470054626,-9.368511199951172,
1557221148196,1.0739756916072776,0.4357447028160095,0.8786720037460327,-9.567230224609375,
1557221148218,1.2907722001265867,0.8475474119186401,0.8978256583213806,-9.952696800231934,
1557221148237,1.4380318031136716,1.113303780555725,1.0749965906143188,-10.196905136108398,
1557221148257,1.146034581399936,1.0773907899856567,1.4317326545715332,-9.921571731567383,
1557221148277,0.6805823781983893,0.7709329724311829,1.8411411046981812,-9.727641105651855,
1557221148297,0.2708369982300283,0.33279404044151306,2.3582887649536133,-9.583989143371582,
1557221148317,0.4461955300113628,0.07182604819536209,2.6623523235321045,-9.514557838439941,1013.0205078125
1557221148337,0.44375441508716007,-0.11971008777618408,2.6001031398773193,-9.385271072387695,
1557221148357,0.576860901648939,-0.16759411990642548,2.5450363159179688,-9.947908401489258,
1557221148377,1.2541337802077346,-0.05267243832349777,2.691082715988159,,
1557221148378,,,,-10.704475402832031,
1557221148397,0.8499563276066916,0.16759411990642548,2.7293899059295654,-10.283096313476562,
1557221148418,0.39139456284181556,0.12689268589019775,2.760514497756958,-9.394847869873047,
1557221148438,0.6283805735264821,0.2298433631658554,3.004723072052002,-9.263166427612305,
1557221148458,0.9141931684947715,0.6320692300796509,3.2824504375457764,-9.473855972290039,
1557221148478,1.2499233699198091,0.9768342971801758,3.4979286193847656,-9.485827445983887,
1557221148498,1.2249024449643184,0.9074024558067322,3.5218706130981445,-9.366117477416992,1013.025390625
1557221148518,0.9600464015415846,0.569819986820221,3.315969467163086,-9.0859956741333,
1557221148538,0.5070553343332517,0.19153612852096558,2.9041666984558105,-9.160215377807617,
1557221148558,0.39174255724800977,-0.1412578970193863,2.492363929748535,-9.672574996948242,
1557221148578,0.7225620930134934,-0.40222588181495667,2.233790159225464,-9.80904483795166,
1557221148598,0.7585371819412211,-0.40222588181495667,2.1475989818573,-9.86889934539795,
1557221148618,0.550137515649663,-0.19632454216480255,2.118868589401245,-9.763554573059082,
1557221148638,0.37035666093796255,-0.016759412363171577,2.1116859912872314,-9.579200744628906,
1557221148658,0.2627247790292211,-0.0071826050989329815,2.252943754196167,-9.619902610778809,
1557221148678,0.33453943184651613,0.05985504388809204,2.2888567447662354,-9.794678688049316,1013.037841796875
1557221153198,0.19485120658097144,0.21547815203666687,2.6144683361053467,-9.526528358459473,1013.02783203125
1557221153240,0.6212597511186326,0.8810662031173706,2.5474305152893066,-9.509769439697266,
1557221153299,0.5659026175943825,0.8595184087753296,2.5067291259765625,-9.50737476348877,
1557221153359,0.5736343627950301,0.8595184087753296,2.6623523235321045,-9.495404243469238,1013.033447265625
1557221153420,0.45008267795489365,0.8164227604866028,2.5091233253479004,-9.548076629638672,
1557221153479,,0.8379706144332886,,,
1557221153480,0.4271969314627954,,2.4229321479797363,-9.579200744628906,
1557221153540,0.43160380555964073,0.8451532125473022,2.652775526046753,,1013.032958984375
1557221153541,,,,-9.557653427124023,
1557221153605,0.15054493579694436,0.6177040338516235,2.5785553455352783,-9.495404243469238,
1557221153662,0.5660347344941964,1.1109095811843872,2.322375535964966,,
1557221153663,,,,-9.440337181091309,
1557221153728,0.3426086921060527,0.933738648891449,2.631227731704712,-9.44752025604248,1013.04345703125
1557221153754,0.39441698138054315,1.0055646896362305,2.695871114730835,,
1557221153755,,,,-9.428366661071777,
1557221153765,,1.1037269830703735,2.806004285812378,,
1557221153766,0.4886321066112453,,,-9.526528358459473,
1557221153786,0.5242166271820521,1.139639973640442,2.9089550971984863,-9.509769439697266,
1557221153805,,1.0989385843276978,,,
1557221153806,0.4440797507407077,,2.9161376953125,-9.370905876159668,
1557221153826,0.3714777515675306,1.1516109704971313,2.7916390895843506,-9.32302188873291,
1557221153848,0.34389656366956417,1.1875240802764893,2.7437551021575928,-9.459490776062012,
1557221153867,,1.1971008777618408,2.63362193107605,,
1557221153868,0.3230594452669086,,,-9.509769439697266,
1557221153887,0.1987254449082823,1.0678139925003052,2.6216509342193604,-9.516951560974121,
1557221153906,,1.0271124839782715,2.5115175247192383,,
1557221153907,0.17743784932931533,,,-9.485827445983887,1013.0380859375
1557221153926,0.1600578517559139,0.9289502501487732,2.513911724090576,-9.543288230895996,
1557221153947,,0.7733271718025208,,,
1557221153948,0.251468339914258,,2.5043349266052246,-9.624691009521484,
1557221153968,0.347179739922876,0.6224924325942993,2.4157495498657227,-9.603142738342285,
1557221153989,0.4157768603082055,0.5434837937355042,2.3487119674682617,-9.607931137084961,
1557221154009,0.4235258474771694,0.5291185975074768,2.300827741622925,-9.605537414550781,
1557221154029,,0.5147533416748047,2.3726539611816406,,
1557221154030,0.3663402685038861,,,-9.583989143371582,
1557221154049,,0.5530605912208557,2.410961151123047,,
1557221154050,0.287628431244186,,,-9.5408935546875,
1557221154070,0.19252281129668092,0.629675030708313,2.451662540435791,-9.524134635925293,
1557221154091,0.12795292301141073,0.6967126727104187,2.513911724090576,-9.533711433410645,1013.03759765625
1557221154111,,0.7374141216278076,2.5761611461639404,,
1557221154112,0.09365712970044292,,,-9.502586364746094,
1557221154130,0.13020114322519724,0.828393816947937,2.652775526046753,,
1557221154131,,,,-9.402029991149902,
1557221154152,0.2200583686532904,0.8906430602073669,2.734178304672241,,
1557221154153,,,,-9.387664794921875,
1557221154171,,0.9265560507774353,,,
1557221154172,0.22757556115018096,,2.736572504043579,-9.435548782348633,
1557221154191,,0.9313444495201111,,,
1557221154192,0.19456891610594715,,2.6862943172454834,-9.488221168518066,
1557221154212,0.2199745812958024,0.993593692779541,2.626439332962036,-9.519346237182617,
1557221154231,,1.0678139925003052,,,
1557221154232,0.27028813720901107,,2.585737943649292,-9.50498104095459,
1557221154251,,1.161187767982483,,,
1557221154252,0.3566433082304144,,2.585737943649292,-9.514557838439941,
1557221154271,,1.1563993692398071,,,
1557221154272,0.33925888553289374,,2.5953147411346436,-9.48343276977539,1013.032958984375
1557221154294,0.35074623502381447,1.170764684677124,2.6455929279327393,,
1557221154295,,,,-9.457097053527832,
1557221154312,,1.115697979927063,2.650381326675415,,
1557221154313,0.2972403962987746,,,-9.488221168518066,
1557221154332,,0.9696516990661621,2.698265314102173,,
1557221154333,0.2081553513502221,,,-9.519346237182617,
1557221154352,0.1423948494803488,0.8906430602073669,2.650381326675415,-9.528923034667969,
1557221154372,0.09089506313518035,0.8331822156906128,2.5953147411346436,-9.512163162231445,
1557221154392,0.10798668197686737,0.8259995579719543,2.518700122833252,-9.526528358459473,
1557221154411,,0.871489405632019,,,
1557221154412,0.16432587736296858,,2.5091233253479004,-9.583989143371582,
1557221154431,0.12182530420028756,0.8834604024887085,2.497152328491211,,
1557221154432,,,,-9.528923034667969,
1557221154451,0.08920122080461187,0.828393816947937,2.516305923461914,-9.50737476348877,1013.04150390625
1557221154472,0.11747042358527546,0.7709329724311829,2.5043349266052246,-9.50737476348877,
1557221154491,,0.6991068720817566,,,
1557221154492,0.17296195949881593,,2.540247917175293,-9.531316757202148,
1557221154513,,0.6512228846549988,,,
1557221154514,0.210250743199009,,2.473210334777832,-9.495404243469238,
1557221154532,,0.6320692300796509,,,
1557221154533,0.22400688968327742,,2.4660277366638184,-9.497797966003418,
1557221154552,0.16872574203587762,0.6823474764823914,2.4875755310058594,-9.502586364746094,
1557221154573,0.17483527166385618,0.7110779285430908,2.4851813316345215,,
1557221154574,,,,-9.557653427124023,
1557221154592,0.14053466332455167,0.7445967197418213,2.516305923461914,-9.552865028381348,
1557221154612,,0.8571242094039917,,,
1557221154613,0.09758053705610666,,2.607285737991333,-9.500192642211914,
1557221154631,,0.9648633003234863,,,
1557221154632,0.18007483406948974,,2.6240451335906982,-9.50737476348877,1013.035400390625
1557221154652,0.2779297614884965,1.0678139925003052,2.669534921646118,-9.497797966003418,
1557221154673,0.27387528115488347,1.072602391242981,2.669534921646118,-9.488221168518066,
1557221154693,,1.0055646896362305,,,
1557221154694,0.19495503137868203,,2.631227731704712,-9.493009567260742,
1557221154714,0.16163572953906366,0.9433154463768005,2.63362193107605,-9.531316757202148,
1557221154732,0.13568312917651507,0.9193734526634216,2.6024973392486572,-9.533711433410645,
1557221154753,,0.8020575642585754,,,
1557221154754,0.06011934038276955,,2.5665841102600098,-9.469067573547363,
1557221154773,0.1268664944785618,0.768538773059845,2.5067291259765625,-9.509769439697266,
1557221154793,0.17826810283478556,0.7805097699165344,2.4420857429504395,-9.543288230895996,
1557221154812,0.22205101539961178,0.7996633648872375,2.387019157409668,,1013.024169921875
1557221154813,,,,-9.560047149658203,
1557221154832,0.22895340677872852,0.8331822156906128,2.3726539611816406,,
1557221154852,0.1601033181435018,0.8307880163192749,2.427720546722412,-9.519346237182617,
1557221154873,0.13144331501184145,0.8475474119186401,2.492363929748535,-9.5408935546875,
1557221154892,0.10622487296985421,0.9169792532920837,2.612074136734009,-9.497797966003418,
1557221154912,0.26416633302585296,1.0103530883789062,2.762908697128296,-9.519346237182617,
1557221154933,,1.072602391242981,,,
1557221154934,0.35107314702534936,,2.849100112915039,-9.485827445983887,
1557221154953,,1.0630255937576294,,,
1557221154954,0.38437406105609123,,2.9161376953125,-9.397241592407227,
1557221154975,0.2897926979654492,0.9648633003234863,2.8562827110290527,-9.332598686218262,
1557221154994,,0.8810662031173706,,,
1557221154995,0.11307751075695872,,2.7102363109588623,-9.418789863586426,1013.0263671875
1557221155015,0.1600268934789531,0.7852981686592102,2.5474305152893066,-9.548076629638672,
1557221155034,,0.6991068720817566,,,
1557221155035,0.29159776975154283,,2.4229321479797363,-9.59596061706543,
1557221155054,,0.5674257874488831,2.3989901542663574,,
1557221155055,0.3993167525486087,,,-9.627084732055664,
1557221155074,0.39545257559398295,0.5219359993934631,2.4157495498657227,-9.57441234588623,
1557221155095,0.35500804683806597,0.5554547905921936,2.38462495803833,-9.502586364746094,
1557221155115,0.29396451209342767,0.7086837291717529,2.3295583724975586,-9.50737476348877,
1557221155136,,0.8738836050033569,2.33913516998291,,
1557221155137,0.28623244598236763,,,-9.579200744628906,
1557221155159,0.20778949007840178,0.9816226959228516,2.52109432220459,-9.57441234588623,
1557221155177,0.25911447470709026,1.1013327836990356,2.652775526046753,-9.500192642211914,1013.0380859375
1557221155196,,1.1204863786697388,2.80361008644104,,
1557221155197,0.325784453140722,,,-9.354146003723145,
1557221155217,0.40682586789317254,1.161187767982483,2.8826189041137695,-9.282320022583008,
1557221155237,0.4419530840275735,1.235408067703247,2.9065608978271484,-9.385271072387695,
1557221155256,,1.3024457693099976,,,
1557221155257,0.4491699689833364,,2.846705913543701,-9.425971984863281,
1557221155276,0.39426002999962145,1.235408067703247,2.8634653091430664,-9.461885452270508,
1557221155297,0.20817965362682547,1.039083480834961,2.7892448902130127,-9.485827445983887,
1557221155317,0.1119402112587205,0.8906430602073669,2.7054479122161865,,
1557221155318,,,,-9.478644371032715,
1557221155337,,0.8547300100326538,2.5737667083740234,,
1557221155338,0.14850887038408833,,,-9.514557838439941,
1557221155358,,0.8212111592292786,,,
1557221155359,0.26219064956155513,,2.454056739807129,-9.569623947143555,1013.038818359375
1557221155377,0.26422462452336565,0.8451532125473022,2.4420857429504395,,
1557221155378,,,,-9.581595420837402,
1557221155398,,0.751779317855835,,,
1557221155399,0.30809967712665864,,2.434903144836426,-9.591172218322754,
1557221155419,0.2730857221176658,0.7110779285430908,2.470816135406494,-9.519346237182617,
1557221155438,,0.7613561153411865,,,
1557221155439,0.22571859546377762,,2.4636335372924805,-9.488221168518066,
1557221155459,,0.849941611289978,2.6144683361053467,,
1557221155460,0.06595581522355205,,,-9.442731857299805,
1557221155479,0.041346710905585275,0.8762778043746948,2.63362193107605,-9.433155059814453,
1557221155501,0.09042388782070378,0.9385270476341248,2.655169725418091,-9.478644371032715,
1557221155519,0.1521944635039661,0.8571242094039917,2.7126305103302,-9.516951560974121,
1557221155539,,0.8403648138046265,,,
1557221155540,0.18695279580074137,,2.736572504043579,-9.53849983215332,1013.03662109375
1557221155558,0.10941434476135736,0.8451532125473022,2.7054479122161865,-9.445125579833984,
1557221155579,0.07526238657783309,0.9624691009521484,2.6455929279327393,,
1557221155580,,,,-9.409213066101074,
1557221155599,0.17620371807770177,1.05105459690094,2.6671407222747803,-9.481039047241211,
1557221155619,0.21601377420856976,1.0342950820922852,2.6815059185028076,-9.564835548400879,
1557221155639,,1.0007762908935547,,,
1557221155640,0.1282167054166024,,2.6408045291900635,-9.48343276977539,
1557221155659,0.013043097619139533,0.9097966551780701,2.6168625354766846,,
1557221155660,,,,-9.41400146484375,
1557221155680,0.04300139823275224,0.8690952062606812,2.6168625354766846,-9.442731857299805,
1557221155699,,0.8140285611152649,,,
1557221155700,0.17436308462868227,,2.585737943649292,-9.564835548400879,
1557221155720,0.1734247993424085,0.7709329724311829,2.5737667083740234,-9.536105155944824,1013.02978515625
1557221155740,0.1690146133203549,0.7422025203704834,2.5665841102600098,,
1557221155741,,,,-9.495404243469238,
1557221155759,,0.7158663272857666,,,
1557221155760,0.20121706297668301,,2.535459518432617,-9.502586364746094,
1557221155780,,0.7948749661445618,,,
1557221155781,0.19460363496747848,,2.5115175247192383,-9.564835548400879,
1557221155800,,0.8619126081466675,2.499546527862549,,
1557221155801,0.18176949964177952,,,-9.569623947143555,
1557221155820,,0.9481038451194763,2.52109432220459,,
1557221155821,0.16994452051558545,,,-9.560047149658203,
1557221155842,0.09103568494537244,0.9792284965515137,2.5689783096313477,-9.442731857299805,
1557221155861,0.08004456782269101,0.9672574996948242,2.628833532333374,-9.430760383605957,
1557221155882,,1.0127472877502441,2.6647465229034424,,
1557221155883,0.14182481595548055,,,-9.464279174804688,
1557221155903,,1.0414776802062988,,,
1557221155904,0.15658998455620138,,2.652775526046753,-9.457097053527832,1013.034912109375
1557221155923,,1.0534487962722778,2.652775526046753,,
1557221155924,0.15993938067904293,,,-9.421183586120605,
1557221155943,0.11371730047551157,1.0079588890075684,2.6455929279327393,-9.428366661071777,
1557221155963,,1.036689281463623,,,
1557221155964,0.15338034578262563,,2.6791117191314697,-9.440337181091309,
1557221155983,0.20008136949213584,1.048660397529602,2.7054479122161865,-9.509769439697266,
1557221156004,0.03436542690610165,0.8978256583213806,2.6144683361053467,-9.402029991149902,
1557221156024,,0.730231523513794,2.5282769203186035,,
1557221156025,0.2141328668145794,,,-9.32302188873291,
1557221156044,0.3148651148928029,0.6584054827690125,2.5043349266052246,-9.588777542114258,
1557221156063,,0.7326257228851318,,,
1557221156064,0.3956144401081102,,2.449268341064453,-9.75637149810791,
1557221156085,0.15963700487136076,0.8978256583213806,2.432508945465088,-9.526528358459473,1013.0322265625
1557221156105,0.08494719032352847,0.9193734526634216,2.494758129119873,-9.35893440246582,
1557221156125,,1.0103530883789062,,,
1557221156126,0.13969415303202398,,2.473210334777832,-9.516951560974121,
1557221156145,,1.0630255937576294,,,
1557221156146,0.28723962904283307,,2.387019157409668,-9.639056205749512,
1557221156165,,1.0678139925003052,,,
1557221156166,0.380031801637259,,2.3774423599243164,-9.75397777557373,
1557221156186,,1.0414776802062988,,,
1557221156187,0.14326056367477405,,2.4444799423217773,-9.493009567260742,
1557221156206,,0.9840168952941895,,,
1557221156207,0.11934710027427675,,2.6192567348480225,-9.351752281188965,
1557221156226,,1.039083480834961,,,
1557221156227,0.20122870781316934,,2.717418909072876,-9.394847869873047,
1557221156247,0.24681400680371834,1.05105459690094,2.736572504043579,-9.5408935546875,
1557221156267,,1.0678139925003052,,,
1557221156268,0.25379261995475855,,2.7269957065582275,-9.5624418258667,1013.035400390625
1557221156287,0.19770267906250222,1.0845733880996704,2.691082715988159,-9.488221168518066,
1557221156307,0.20220037152563256,1.1109095811843872,2.6886885166168213,-9.469067573547363,
1557221156327,,1.256955862045288,2.5929205417633057,,
1557221156328,0.29502288402279886,,,-9.524134635925293,
1557221156347,0.3655423992133264,1.3479355573654175,2.6024973392486572,-9.495404243469238,
1557221156366,0.37809148671464154,1.3479355573654175,2.604891538619995,,
1557221156367,,,,-9.545681953430176,
1557221156386,0.14937891577931117,1.0965443849563599,2.6360161304473877,-9.476250648498535,
1557221156406,0.1318451489656654,0.8667010068893433,2.5929205417633057,-9.433155059814453,
1557221156426,0.2502592500916812,0.7469909191131592,2.4636335372924805,-9.497797966003418,
1557221156446,0.3701674293900667,0.6416460275650024,2.387019157409668,-9.548076629638672,1013.03076171875
1557221156466,0.5207425674186421,0.49799394607543945,2.315192937850952,-9.59596061706543,
1557221156486,0.516600437559695,0.5746083855628967,2.207453966140747,-9.648633003234863,
1557221156506,0.39987016671835046,0.7110779285430908,2.233790159225464,-9.641449928283691,
1557221156526,0.1994979155289354,0.8523358106613159,2.3295583724975586,-9.516951560974121,
1557221156546,,0.9888052940368652,,,
1557221156547,0.15793982718330307,,2.367865562438965,-9.50498104095459,
1557221156566,,1.1228805780410767,,,
1557221156567,0.19863820101500432,,2.4468741416931152,-9.476250648498535,
1557221156586,,1.1563993692398071,,,
1557221156587,0.24026006855840554,,2.5761611461639404,-9.512163162231445,
1557221156609,0.23847945365434164,1.1204863786697388,2.626439332962036,-9.543288230895996,
1557221156628,0.15856375622054353,1.0127472877502441,2.580949544906616,-9.560047149658203,1013.02978515625
1557221156650,0.14040281704548338,0.8786720037460327,2.477998733520508,-9.5408935546875,
1557221156670,0.24524926050805723,0.7805097699165344,2.3989901542663574,-9.543288230895996,
1557221156691,0.3071032636214395,0.7709329724311829,2.3750481605529785,-9.617507934570312,
1557221156713,,0.8212111592292786,,,
1557221156714,0.20090292572342464,,2.4851813316345215,-9.5624418258667,
1557221156731,0.15264814484162745,0.8523358106613159,2.609679937362671,-9.500192642211914,
1557221156750,,1.0007762908935547,2.7317841053009033,,
1557221156751,0.18218878613078546,,,-9.41639518737793,
1557221156770,0.3163478703270546,1.2210428714752197,2.760514497756958,,
1557221156771,,,,-9.387664794921875,
1557221156790,0.4771372502967733,1.335964560508728,2.8874073028564453,-9.368511199951172,
1557221156810,0.5408769560660178,1.4101848602294922,2.9017724990844727,-9.308655738830566,1013.024658203125
1557221156830,0.4723588780420113,1.357512354850769,2.8802247047424316,-9.337387084960938,
1557221156850,0.2642557249811447,1.194706678390503,2.760514497756958,-9.433155059814453,
1557221156871,0.12219912789522523,1.0654197931289673,2.6216509342193604,-9.497797966003418,
1557221156891,,0.993593692779541,,,
1557221156892,0.1650161614414277,,2.5115175247192383,-9.555258750915527,
1557221156912,0.28450028206454275,0.9648633003234863,2.4372973442077637,-9.655815124511719,
1557221156932,0.28184496679401827,0.9097966551780701,2.403778553009033,-9.63187313079834,
1557221156952,0.2781064734556979,0.7948749661445618,2.3774423599243164,-9.543288230895996,
1557221156974,0.20094425323552403,0.8427590131759644,2.432508945465088,-9.528923034667969,
1557221156994,,0.9289502501487732,,,
1557221156995,0.18652831066216746,,2.4229321479797363,-9.536105155944824,1013.027587890625
1557221157015,,0.9457096457481384,2.5785553455352783,,
1557221157016,0.11916561333678737,,,-9.536105155944824,
1557221157035,,0.9169792532920837,,,
1557221157036,0.0907827166194268,,2.655169725418091,-9.452308654785156,
1557221157056,,0.9097966551780701,2.652775526046753,,
1557221157057,0.10175905098774629,,,-9.35654067993164,
1557221157076,,0.9457096457481384,2.628833532333374,,
1557221157077,0.07552620304135059,,,-9.385271072387695,
1557221157096,0.0901024194182332,0.9265560507774353,2.6168625354766846,,
1557221157097,,,,-9.493009567260742,
1557221157117,0.17893824686833232,0.7206547260284424,2.5953147411346436,,
1557221157118,,,,-9.485827445983887,
1557221157139,0.39365811562571124,0.49799394607543945,2.454056739807129,-9.445125579833984,
1557221157158,0.5054422079720593,0.47644615173339844,2.2409727573394775,-9.502586364746094,
1557221157181,0.49023125940069945,0.5722141861915588,2.207453966140747,-9.651026725769043,1013.026611328125
1557221157239,,0.7398083209991455,2.5258827209472656,,
1557221157240,0.12252579968381601,,,-9.430760383605957,
1557221157298,0.22593504244838322,1.0654197931289673,2.6791117191314697,-9.490615844726562,
1557221157457,0.021006527514984635,0.8906430602073669,2.5713725090026855,-9.442731857299805,1013.02783203125
1557221157480,0.11384632318579775,0.9169792532920837,2.669534921646118,-9.387664794921875,
1557221157540,0.23011205031269014,1.036689281463623,2.5785553455352783,-9.615114212036133,1013.015869140625
1557221157600,,1.1492167711257935,,,
1557221157601,,,,-9.155426979064941,
1557221157661,0.3400588177196082,0.7757213711738586,2.516305923461914,-9.763554573059082,
1557221157721,0.6288853043569008,0.5219359993934631,2.2697031497955322,,1013.024658203125
1557221157722,,,,-9.940725326538086,
1557221157783,0.3338874430842435,1.1779472827911377,2.5546131134033203,-9.30386734008789,
1557221157844,0.334553083787912,0.6368576288223267,2.276885747909546,-9.636661529541016,
1557221157906,0.22055100794185445,0.6919242739677429,2.2864625453948975,-9.521739959716797,1013.037353515625
1557221157965,0.2064325565089245,1.0654197931289673,2.4612393379211426,-9.514557838439941,
1557221189201,,1.414973258972168,,,
1557221189202,0.4698432888362386,1.1420341730117798,2.5737667083740234,-9.457097053527832,1013.04736328125
1557221189246,0.4155072611921404,1.256955862045288,2.1380221843719482,-9.588777542114258,
1557221189307,0.36091511809736815,1.237802267074585,2.123656988143921,-9.59835433959961,
1557221189370,0.33029778073301846,1.278503656387329,2.097320795059204,-9.509769439697266,1013.030517578125
1557221189426,0.34829440107883525,1.3192051649093628,2.10210919380188,-9.643844604492188,
1557221189486,,1.2976573705673218,2.3104045391082764,,
1557221189487,0.19575909101756295,,,-9.533711433410645,
1557221189547,,1.2473790645599365,2.0661959648132324,,
1557221189548,0.25959218480575225,,,-9.588777542114258,1013.02490234375
1557221189608,0.312912978041776,1.1755530834197998,1.9847931861877441,,
1557221189609,,,,-9.670180320739746,
1557221189669,0.20101135293844297,1.1635819673538208,2.0422539710998535,-9.588777542114258,
1557221189729,0.18472636654593969,1.292868971824646,2.1284453868865967,-9.569623947143555,1013.024658203125
1557221189790,0.20101984075224186,1.3479355573654175,2.1356279850006104,,
1557221189791,,,,-9.552865028381348,
1557221189850,0.1347347721773947,1.256955862045288,2.126051187515259,-9.57441234588623,
1557221189911,0.14094159462895223,1.3120225667953491,2.1978771686553955,,1013.003173828125
1557221189912,,,,-9.557653427124023,
1557221189971,,1.1803414821624756,2.145204782485962,,
1557221189972,0.12597262206309698,,,-9.607931137084961,
1557221190032,0.12960142473391373,1.235408067703247,2.070984363555908,-9.548076629638672,
1557221190095,0.07796379385124251,1.2545616626739502,2.142810583114624,-9.519346237182617,1013.001953125
1557221190156,,1.2521674633026123,,,
1557221190157,0.17280272963222854,,2.1116859912872314,-9.641449928283691,
1557221190215,,1.2210428714752197,,,
1557221190216,0.09968086089773963,,2.1308395862579346,-9.579200744628906,
1557221190275,,1.2952631711959839,,,
1557221190276,0.14000850221668265,,2.097320795059204,-9.576807022094727,1012.999267578125
1557221190336,0.09245528832000384,1.2545616626739502,2.183511972427368,-9.567230224609375,
1557221198201,,1.2713210582733154,,,
1557221198202,0.07448467186219851,1.2473790645599365,2.145204782485962,-9.5408935546875,1012.99609375
1557221198213,0.22640902977573665,1.0199298858642578,2.0901381969451904,-9.615114212036133,1013.015869140625
1557221198273,0.17954433999343933,1.3670891523361206,2.0901381969451904,-9.569623947143555,
1557221198333,,1.2282254695892334,2.1356279850006104,,
1557221198334,0.127435157885785,,,-9.619902610778809,
1557221198394,0.21547027613629793,1.381454348564148,2.2840683460235596,-9.536105155944824,1013.00927734375
1557221198457,0.14300096857553193,1.2976573705673218,2.2026655673980713,-9.59596061706543,
1557221198516,,1.039083480834961,,,
1557221198517,0.2879349005515372,,1.8962076902389526,-9.57441234588623,
1557221198577,0.34403101315326906,1.0247182846069336,1.8339585065841675,-9.655815124511719,1013.013671875
1557221198638,0.2600126884188716,1.3670891523361206,2.315192937850952,-9.524134635925293,
1557221198698,,1.3982137441635132,2.315192937850952,,
1557221198699,0.26771050679899167,,,-9.5624418258667,
1557221198758,,1.256955862045288,2.126051187515259,,1013.0205078125
1557221198759,0.08945051464286725,,,-9.579200744628906,
1557221198819,,1.290474772453308,,,
1557221198820,0.11442871435583332,,2.078166961669922,-9.581595420837402,
1557221198880,,1.1683704853057861,,,
1557221198883,0.10335085458878544,,2.0159177780151367,-9.550470352172852,
1557221198940,,1.0821791887283325,1.9704279899597168,,1013.028076171875
1557221198941,0.26268915786056646,,,-9.715670585632324,
1557221199004,,1.1492167711257935,2.094926595687866,,
1557221199005,0.12223051621310979,,,-9.615114212036133,
1557221199061,0.1692565850839101,1.3431471586227417,2.212242364883423,-9.524134635925293,
1557221199122,0.13695604983839008,1.2401964664459229,2.123656988143921,-9.634267807006836,1013.040283203125
1557221200197,0.16214062492941872,1.3192051649093628,2.1739351749420166,-9.617507934570312,
1557221200214,,1.2737152576446533,,,
1557221200215,0.3736478548267317,,1.7334020137786865,-9.564835548400879,1013.03857421875
1557221200276,0.37867609879940045,1.3096283674240112,1.6879122257232666,-9.524134635925293,
1557221200335,,1.2234370708465576,1.8794482946395874,,
1557221200336,0.27284107556734655,,,-9.703699111938477,
1557221200397,,1.5634137392044067,,,
1557221200398,0.3893267228398704,,1.7477672100067139,-9.519346237182617,1013.030029296875
1557221200459,0.3713087161991334,1.6687586307525635,1.845929503440857,-9.607931137084961,
1557221200517,0.2323738978258725,1.4221558570861816,1.7501614093780518,-9.44752025604248,
1557221200577,,1.5490485429763794,1.7573440074920654,,1013.02099609375
1557221200578,0.426017643112084,,,-9.864110946655273,
1557221200638,0.533120368991071,1.9512743949890137,1.8148049116134644,-9.406818389892578,
1557221200698,0.3240107708019305,1.721431016921997,1.7357962131500244,-9.655815124511719,
1557221200757,0.14652345136145595,1.5107412338256836,1.778891921043396,-9.63187313079834,1013.009033203125
1557221200818,0.28900542855691624,1.357512354850769,1.5825673341751099,-9.66299819946289,
1557221200877,0.21794501418081566,1.6615760326385498,1.802833914756775,-9.543288230895996,
1557221200937,0.18001689987188113,1.599326729774475,1.764526605606079,-9.610325813293457,1013.015625
1557221200997,0.19972077861000945,1.601720929145813,1.702277421951294,,
1557221200998,,,,-9.603142738342285,
1557221201058,0.27491710074404835,1.50355863571167,1.50355863571167,-9.5408935546875,
1557221201118,0.3962409112892785,1.01753568649292,1.5969325304031372,-9.72285270690918,1013.021484375
1557221201179,0.16772554777679682,1.3527239561080933,1.6974890232086182,-9.730035781860352,
1557221201239,0.21264222728790738,1.4844050407409668,1.7741034030914307,-9.612719535827637,
1557221201300,0.12024212751497967,1.2042834758758545,1.6280571222305298,-9.679757118225098,1013.029541015625
1557221201362,,0.5363011956214905,1.7501614093780518,,
1557221201363,0.7020375850008748,,,-9.926360130310059,
1557221201424,0.13013275734730273,1.0845733880996704,1.5442601442337036,-9.583989143371582,
1557221201485,0.3796325094330029,1.0534487962722778,1.9129672050476074,-9.907206535339355,1013.0390625
1557221201545,,1.2449848651885986,1.6927006244659424,,
1557221201546,0.41407225255457175,,,-9.940725326538086,
1557221201604,,1.1492167711257935,,,
1557221201605,0.32607946400223753,,1.5849615335464478,-9.880870819091797,
1557221201664,0.762214186523009,0.811634361743927,2.1811177730560303,-10.08437728881836,1013.061767578125
1557221201724,0.2904514117347621,0.9528923034667969,1.7764976024627686,-9.813833236694336,
1557221201785,0.4907820025185952,0.4644751250743866,1.6424223184585571,-9.804255485534668,
1557221201845,0.30535393969569535,0.8619126081466675,1.4197616577148438,,1013.078369140625
1557221201846,,,,-9.35893440246582,
1557221201907,0.815312140666843,0.6344634294509888,2.2864625453948975,-9.682151794433594,
1557221201966,,-0.13168109953403473,,,
1557221201967,1.5754161284993216,,2.5498247146606445,-10.199298858642578,
1557221202027,0.7596926617339136,0.524330198764801,0.9888052940368652,-9.528923034667969,1013.068359375
1557221202086,0.7567945112150326,1.8507179021835327,1.6927006244659424,-10.105925559997559,
1557221202237,1.2655625504521915,2.382230758666992,1.3431471586227417,-10.448296546936035,1013.042724609375
1557221202267,,2.4181437492370605,,,
1557221202268,1.158254072281389,,0.17477671802043915,-9.452308654785156,
1557221202327,1.1266280156527648,2.070984363555908,0.035913024097681046,-9.186552047729492,
1557221202387,0.5958354615349097,0.9552865028381348,0.8906430602073669,-9.708487510681152,1013.02197265625
1557221202448,,1.3192051649093628,,,
1557221202449,0.6260520663378807,,1.3120225667953491,-10.134655952453613,
1557221202508,,1.8962076902389526,,,
1557221202509,0.8860092349335373,,1.8579005002975464,-10.127472877502441,
1557221202569,,1.7190368175506592,1.558625340461731,,1013.017333984375
1557221202570,0.3782497696696183,,,-9.555258750915527,
1557221202629,,1.381454348564148,,,
1557221202630,0.11817972221331131,,1.3503297567367554,-9.732429504394531,
1557221202690,,1.2210428714752197,,,
1557221202691,0.3494576599147505,,1.460463047027588,-9.938331604003906,
1557221202750,,1.7525556087493896,1.2976573705673218,,
1557221202751,0.5497215574035728,,,-9.909601211547852,1013.012939453125
1557221208198,,1.7836803197860718,,,
1557221208199,0.5276928064336364,1.2425906658172607,1.3958195447921753,-9.768342971801758,
1557221208251,,1.235408067703247,,,
1557221208252,0.226586702303751,,1.5394717454910278,-9.742006301879883,1013.0341796875
1557221208310,0.24771487928927277,1.2330138683319092,1.4891934394836426,-9.742006301879883,
1557221208370,0.18430261524570488,1.1779472827911377,1.4844050407409668,-9.708487510681152,
1557221208430,0.11968205108390413,1.0797849893569946,1.5538369417190552,-9.715670585632324,1013.042236328125
1557221208491,0.3041897155354979,1.1109095811843872,1.4077905416488647,-9.854534149169922,
1557221208552,0.17763319384247941,1.1827356815338135,1.4963760375976562,-9.746794700622559,
1557221208613,0.18373887433864802,1.3551181554794312,1.7118542194366455,-9.617507934570312,1013.03076171875
1557221208674,0.4420739078535635,1.5394717454910278,1.9728221893310547,-9.62947940826416,
1557221208734,0.16585315159007588,1.3431471586227417,1.5658079385757446,-9.567230224609375,
1557221208794,,1.0199298858642578,1.2473790645599365,,1013.025390625
1557221208795,0.44754963815291116,,,-9.75637149810791,
1557221208855,0.522517121048184,0.7948749661445618,1.2210428714752197,-9.773131370544434,
1557221208915,0.10485291827517453,1.1468225717544556,1.6352397203445435,,
1557221208916,,,,-9.694122314453125,
1557221208975,,1.5442601442337036,1.9488801956176758,,1013.0263671875
1557221208976,0.4772983872856134,,,-9.646238327026367,
1557221209036,,1.702277421951294,1.9033904075622559,,
1557221209037,0.5097146136605013,,,-9.536105155944824,
1557221209095,,1.3024457693099976,1.5179238319396973,,
1557221209096,0.24423818546310067,,,-9.806650161743164,
1557221209155,,0.9169792532920837,1.3838485479354858,,
1557221209156,0.39063556656851073,,,-9.765948295593262,1013.0283203125
1557221209215,0.1874163659650828,1.0606313943862915,1.4867992401123047,,
1557221209216,,,,-9.727641105651855,
1557221209275,0.11184700709570145,1.1420341730117798,1.647210717201233,,
1557221209276,,,,-9.651026725769043,
1557221231200,0.10968339816599426,1.2880805730819702,1.5945383310317993,-9.667786598205566,1013.028564453125
1557221231221,0.12840957759232102,1.1779472827911377,1.5610195398330688,-9.727641105651855,1013.01220703125
1557221231282,0.08896101724579686,1.1899182796478271,1.556231141090393,-9.691728591918945,
1557221231340,,1.1683704853057861,,,
1557221231341,0.12243379645006311,,1.5634137392044067,-9.72285270690918,
1557221231400,0.10572817033461117,1.216254472732544,1.5729905366897583,-9.710882186889648,1013.021240234375
1557221231461,0.1178915570186229,1.170764684677124,1.5658079385757446,-9.720458984375,
1557221231521,0.10042277314915302,1.1635819673538208,1.5610195398330688,-9.701305389404297,
1557221231581,,1.1851298809051514,1.522712230682373,,
1557221231582,0.11419702200605973,,,-9.718064308166504,1013.014892578125
1557221231642,0.05021240438770211,1.1899182796478271,1.558625340461731,,
1557221231703,0.09675752993170113,1.2186486721038818,1.5969325304031372,-9.691728591918945,
1557221231763,0.1075308117332385,1.161187767982483,1.5418659448623657,-9.710882186889648,1013.013427734375
1557221231825,0.11050974640244614,1.1803414821624756,1.5131354331970215,-9.713275909423828,
1557221231884,0.08547216379820426,1.194706678390503,1.5634137392044067,-9.694122314453125,
1557221231945,0.1084841698481562,1.1803414821624756,1.556231141090393,-9.718064308166504,1013.034423828125
1557221232005,0.11386048688197764,1.2018892765045166,1.5610195398330688,,
1557221232006,,,,-9.72285270690918,
1557221232064,,1.1851298809051514,,,
1557221232065,0.06919755356561917,,1.5490485429763794,-9.679757118225098,
1557221232127,0.10946183078813308,1.1444283723831177,1.5610195398330688,-9.710882186889648,1013.039794921875
1557221232188,0.14784304267997925,1.161187767982483,1.5634137392044067,-9.75637149810791,
1557221232251,0.064901418492773,1.192312479019165,1.5658079385757446,-9.672574996948242,
1557221232307,0.07372908875140241,1.173158884048462,1.5729905366897583,-9.679757118225098,1013.044677734375
1557221232368,0.06310666957127126,1.1827356815338135,1.5873557329177856,-9.660603523254395,
1557221232426,0.08043401417481795,1.2234370708465576,1.5753847360610962,-9.674968719482422,
1557221232486,0.045819765499879296,1.1755530834197998,1.5658079385757446,-9.653421401977539,1013.053466796875
1557221232547,0.08877706149552339,1.1659762859344482,1.577778935432434,-9.694122314453125,
1557221232608,0.07210804538182905,1.1803414821624756,1.5729905366897583,,
1557221232609,,,,-9.679757118225098,
1557221232669,,1.192312479019165,1.5873557329177856,,
1557221232670,0.07603040113947333,,,-9.677363395690918,1013.044677734375
1557221232731,0.08412354604115034,1.2210428714752197,1.580173134803772,-9.679757118225098,
1557221232790,0.08478676822327726,1.1563993692398071,1.556231141090393,-9.691728591918945,
1557221232852,0.05549612561843418,1.1851298809051514,1.577778935432434,-9.660603523254395,1013.05126953125
1557221232913,0.08186492065274925,1.1971008777618408,1.6065093278884888,-9.672574996948242,
1557221232976,,1.2042834758758545,1.5705963373184204,,
1557221232977,0.07932355131361704,,,-9.684545516967773,
1557221233033,,1.192312479019165,,,
1557221233034,0.05268082283767589,,1.5753847360610962,-9.658209800720215,1013.04150390625
1557221233093,,1.2042834758758545,,,
1557221233094,0.07147449388636726,,1.6041151285171509,-9.660603523254395,
1557221233153,0.0722572702011544,1.2114660739898682,1.5921441316604614,-9.667786598205566,
1557221233213,0.050184767725014956,1.2018892765045166,1.5610195398330688,-9.655815124511719,1013.039794921875
1557221233419,,1.173158884048462,1.6041151285171509,,
1557221233420,0.08671297427867497,,1.5849615335464478,-9.684545516967773,1013.038818359375
1557221233453,0.09405184869247225,1.1971008777618408,1.625662922859192,,
1557221233454,,,,-9.679757118225098,
1557221233514,0.06417299574724813,1.1994950771331787,1.5849615335464478,-9.667786598205566,
1557221233574,0.077788402721231,1.2042834758758545,1.580173134803772,,1013.030517578125
1557221233575,,,,-9.682151794433594,
1557221233636,0.09277700116189563,1.2066776752471924,1.5945383310317993,-9.694122314453125,
1557221233696,0.07908731791489786,1.2042834758758545,1.6065093278884888,-9.674968719482422,
1557221233757,0.1135758482667724,1.2425906658172607,1.5825673341751099,,1013.0283203125
1557221233758,,,,-9.706093788146973,
1557221233817,,1.1971008777618408,1.5753847360610962,,
1557221233818,0.0806764400351661,,,-9.68694019317627,
1557221233877,0.05912994380906767,1.2018892765045166,1.5969325304031372,-9.658209800720215,
1557221233937,0.09213126940726059,1.192312479019165,1.6280571222305298,-9.679757118225098,1013.033447265625
1557221234000,0.07238512211515215,1.2186486721038818,1.6089035272598267,-9.66299819946289,
1557221234060,0.06865234605618252,1.2042834758758545,1.601720929145813,-9.667786598205566,
1557221234120,0.07584375539374126,1.216254472732544,1.5945383310317993,-9.674968719482422,1013.0234375
1557221234180,0.08556530832240616,1.2066776752471924,1.5682021379470825,-9.68933391571045,
1557221234239,,1.194706678390503,,,
1557221234240,0.07423218806230439,,1.6208745241165161,-9.66539192199707,
1557221234300,0.09848308529524545,1.2114660739898682,1.5873557329177856,-9.701305389404297,1013.039794921875
1557221234360,0.07244529812402417,1.216254472732544,1.5897499322891235,-9.672574996948242,
1557221234420,,1.2330138683319092,,,
1557221234421,0.10462967570942139,,1.5897499322891235,-9.701305389404297,
1557221234481,0.11888197667400321,1.2497732639312744,1.580173134803772,-9.710882186889648,1013.036865234375
1557221234541,,1.1875240802764893,,,
1557221234542,0.04027989402820005,,1.556231141090393,-9.639056205749512,
1557221234601,,1.2186486721038818,,,
1557221234602,0.08366062172334834,,1.599326729774475,-9.682151794433594,
1557221234661,,1.2330138683319092,,,
1557221234662,0.11297063335257537,,1.5921441316604614,-9.710882186889648,1013.030517578125
1557221234722,,1.2234370708465576,,,
1557221234723,0.1042498782709495,,1.5729905366897583,-9.706093788146973,
1557221234782,0.10578264661653014,1.2186486721038818,1.5634137392044067,-9.708487510681152,
1557221234842,0.0909557972685677,1.1875240802764893,1.6112977266311646,,1013.028564453125
1557221234843,,,,-9.68694019317627,
1557221234902,,1.237802267074585,,,
1557221234903,0.11271037756387527,,1.580173134803772,-9.710882186889648,
1557221234964,,1.2210428714752197,1.6208745241165161,,
1557221234965,0.09461879499051222,,,-9.684545516967773,
1557221235022,0.09012511500002049,1.1899182796478271,1.6160861253738403,-9.684545516967773,1013.02490234375
1557221235082,,1.2090718746185303,1.6041151285171509,,
1557221235083,0.1265600501518031,,,-9.727641105651855,
1557221235143,0.09144790751650568,1.235408067703247,1.5945383310317993,-9.68694019317627,
1557221235202,0.08060021124725134,1.2042834758758545,1.6208745241165161,-9.672574996948242,1013.02001953125
1557221235263,0.05554302340378122,1.1994950771331787,1.599326729774475,-9.655815124511719,
1557221235324,0.09232661410993638,1.2090718746185303,1.5610195398330688,-9.694122314453125,
1557221235386,,1.1851298809051514,1.6376339197158813,,
1557221235387,0.0999306192218194,,,-9.684545516967773,1013.02734375
1557221235448,0.086556545837765,1.2306196689605713,1.580173134803772,-9.684545516967773,
1557221235510,0.08569934476289091,1.2042834758758545,1.5849615335464478,-9.68933391571045,
1557221235570,0.0837988634312805,1.2186486721038818,1.5921441316604614,-9.684545516967773,1013.020751953125
1557221235634,0.085789167745769,1.1899182796478271,1.5753847360610962,-9.68933391571045,
1557221235695,,1.2066776752471924,,,
1557221235696,0.06526478940676793,,1.6065093278884888,-9.66299819946289,
1557221235759,0.11440912237341345,1.2641384601593018,1.577778935432434,-9.6989107131958,1013.021240234375
1557221235819,,1.216254472732544,,,
1557221235820,0.08440539267421293,,1.5729905366897583,-9.68694019317627,
1557221235880,0.13019066372825933,1.161187767982483,1.534683346748352,-9.72285270690918,
1557221242199,0.1116441415869568,1.259350061416626,1.5873557329177856,,1013.03515625
1557221242200,,,,-9.6989107131958,
1557221242206,0.13312784791864163,1.2282254695892334,1.5849615335464478,-9.734824180603027,1013.029296875
1557221242264,0.08324209138067201,1.1899182796478271,1.6280571222305298,-9.66539192199707,
1557221242324,0.08579120863934572,1.2114660739898682,1.6136919260025024,-9.679757118225098,
1557221242384,0.11833240403170878,1.2521674633026123,1.5873557329177856,-9.710882186889648,1013.029052734375
1557221242444,0.10430238544894416,1.2234370708465576,1.6136919260025024,-9.6989107131958,
1557221242504,0.10356982179905166,1.2306196689605713,1.5849615335464478,-9.703699111938477,
1557221242564,0.1235357141293681,1.2282254695892334,1.580173134803772,,1013.029052734375
1557221242565,,,,-9.725247383117676,
1557221242626,0.11382088709527857,1.2425906658172607,1.6089035272598267,,
1557221242627,,,,-9.706093788146973,
1557221242687,0.09373975240808229,1.216254472732544,1.6304513216018677,-9.679757118225098,
1557221242749,0.08143924066153717,1.2234370708465576,1.5897499322891235,-9.682151794433594,1013.03857421875
1557221242813,,1.256955862045288,1.6352397203445435,,
1557221242814,0.11955965334199986,,,-9.696516990661621,
1557221242875,0.11881581571879767,1.2401964664459229,1.6184803247451782,-9.710882186889648,
1557221242935,0.11618171452692033,1.2449848651885986,1.5753847360610962,,1013.041015625
1557221242936,,,,-9.713275909423828,
1557221242996,0.08806964603081548,1.2042834758758545,1.6112977266311646,-9.684545516967773,
1557221243058,0.08524107241082572,1.2186486721038818,1.6280571222305298,-9.672574996948242,
1557221243119,0.13045735309413897,1.2521674633026123,1.6089035272598267,-9.72285270690918,1013.036376953125
1557221249198,0.12907941342569565,1.2306196689605713,1.6041151285171509,-9.727641105651855,
1557221249249,,1.2018892765045166,,,
1557221249250,0.10626543665693812,,1.5418659448623657,-9.703699111938477,1012.993896484375
1557221249310,0.11924417092213872,1.2473790645599365,1.5825673341751099,-9.715670585632324,
1557221249369,,1.2401964664459229,,,
1557221249370,0.09641268012398327,,1.5682021379470825,-9.694122314453125,
1557221249431,0.09494106349949905,1.2497732639312744,1.5729905366897583,-9.68933391571045,1012.99560546875
1557221249492,,1.158793568611145,,,
1557221249493,0.13642380780572397,,1.5873557329177856,-9.730035781860352,
1557221249552,,1.1827356815338135,,,
1557221249553,0.14703669372761716,,1.5729905366897583,-9.749189376831055,
1557221249615,0.09552161852196002,1.2641384601593018,1.601720929145813,-9.677363395690918,1013.0068359375
1557221249674,,1.2306196689605713,1.6352397203445435,,
1557221249675,0.10154720337922203,,,-9.68694019317627,
1557221249733,,1.2114660739898682,1.623268723487854,,
1557221249734,0.08931707902058925,,,-9.682151794433594,
1557221249794,,1.1971008777618408,1.5514427423477173,,1013.012451171875
1557221249795,0.11069689367682,,,-9.706093788146973,
1557221249854,,1.216254472732544,1.5849615335464478,,
1557221249855,0.07811186203161175,,,-9.679757118225098,
1557221249916,0.11495098732011573,1.2234370708465576,1.5945383310317993,-9.715670585632324,
1557221249976,0.12170840593414967,1.2401964664459229,1.580173134803772,-9.720458984375,1013.013671875
1557221250037,0.0993831440299554,1.1875240802764893,1.6400281190872192,-9.679757118225098,
1557221250097,0.14628269298830263,1.2401964664459229,1.599326729774475,-9.744400978088379,
1557221250158,0.07996363130736413,1.256955862045288,1.5897499322891235,-9.667786598205566,1013.011474609375
1557221250217,0.09627116232303083,1.2282254695892334,1.6136919260025024,-9.691728591918945,
1557221250277,,1.2186486721038818,1.6112977266311646,,
1557221250278,0.08303789547347709,,,-9.679757118225098,
1557221250338,0.12299825828082796,1.2282254695892334,1.5682021379470825,-9.72285270690918,1013.009521484375
1557221250398,0.10875999877444344,1.2330138683319092,1.6280571222305298,-9.6989107131958,
1557221250457,,1.2258312702178955,,,
1557221250458,0.12459768058048767,,1.5921441316604614,-9.725247383117676,
1557221250519,,1.237802267074585,,,
1557221250520,0.12129931537090215,,1.577778935432434,-9.720458984375,1013.0048828125
1557221250580,,1.2330138683319092,1.6089035272598267,,
1557221250581,0.11164461290245664,,,-9.708487510681152,
1557221250640,0.11436680542924843,1.235408067703247,1.6089035272598267,-9.710882186889648,
1557221255200,0.08206577652983717,1.1803414821624756,1.601720929145813,-9.674968719482422,1013.003173828125
1557221255216,0.12758342094198283,1.216254472732544,1.6304513216018677,,
1557221255217,,,,-9.720458984375,
1557221255275,,1.2737152576446533,,,
1557221255276,0.09672609814353002,,1.6496049165725708,-9.643844604492188,
1557221255336,0.13173589796168467,1.2521674633026123,1.6855180263519287,-9.684545516967773,1013.000732421875
1557221255398,0.11907135012542275,1.2282254695892334,1.6663644313812256,,
1557221255458,0.1050027823576243,1.2258312702178955,1.6280571222305298,,
1557221255459,,,,-9.6989107131958,
1557221255519,0.10032319502101546,1.2018892765045166,1.6160861253738403,,1012.99609375
1557221255520,,,,-9.696516990661621,
1557221255580,0.10727766066707439,1.2617442607879639,1.6639702320098877,-9.672574996948242,
1557221255640,0.10991454306051462,1.3000515699386597,1.6615760326385498,-9.646238327026367,
1557221255700,,1.2306196689605713,1.6496049165725708,,1013.00537109375
1557221255701,0.12435187382966752,,,-9.710882186889648,
1557221255760,,1.192312479019165,,,
1557221255761,0.1270567471087994,,1.599326729774475,-9.725247383117676,
1557221255820,0.0838644479980217,1.2258312702178955,1.6136919260025024,-9.679757118225098,
1557221255882,0.13061520585389583,1.2282254695892334,1.6663644313812256,-9.701305389404297,1013.01025390625
1557221255942,0.08655624456560562,1.1994950771331787,1.644816517829895,-9.660603523254395,
1557221256001,,1.216254472732544,,,
1557221256002,0.13301475635613724,,1.5490485429763794,-9.734824180603027,
1557221256062,,1.1994950771331787,,,
1557221256063,0.07975011030177558,,1.6208745241165161,-9.667786598205566,1013.017578125
1557221256122,0.12147928208840834,1.2066776752471924,1.6759412288665771,-9.66539192199707,
1557221334200,0.12485611726021784,1.2258312702178955,1.6041151285171509,-9.72285270690918,1013.02294921875
1557221334249,0.13587178417653653,1.213860273361206,1.678335428237915,-9.68933391571045,1013.021728515625
1557221334309,0.1206124377071221,1.2018892765045166,1.659181833267212,-9.694122314453125,
1557221334332,0.11875990713352769,1.1827356815338135,1.647210717201233,-9.703699111938477,
1557221334358,0.10777196191134975,1.1994950771331787,1.6543933153152466,-9.68694019317627,
1557221334367,0.11468353189261227,1.1851298809051514,1.644816517829895,-9.703699111938477,
1557221334390,0.13291429377274339,1.1899182796478271,1.6496049165725708,-9.72285270690918,
1557221334408,0.11106622155667581,1.1827356815338135,1.6496049165725708,-9.6989107131958,
1557221334429,0.09576730619651821,1.2234370708465576,1.6543933153152466,-9.670180320739746,1013.01416015625
1557221334449,0.09138997169374603,1.1851298809051514,1.6424223184585571,-9.682151794433594,
1557221334476,0.10059240468539682,1.1971008777618408,1.656787633895874,-9.684545516967773,
1557221334489,0.09068220158432032,1.1875240802764893,1.6711528301239014,-9.660603523254395,
1557221334509,0.11229649389480162,1.1899182796478271,1.6376339197158813,-9.708487510681152,
1557221334530,0.13337171155590224,1.161187767982483,1.647210717201233,-9.725247383117676,
1557221334550,0.12281264232913595,1.1683704853057861,1.6112977266311646,-9.72285270690918,
1557221334570,0.10570326093903207,1.1827356815338135,1.5897499322891235,-9.706093788146973,
1557221334589,,1.1803414821624756,,,
1557221334590,0.0878727497361108,,1.6089035272598267,-9.68933391571045,
1557221334610,0.09587174760892146,1.194706678390503,1.6280571222305298,-9.694122314453125,1013.027099609375
1557221334630,0.0817431431353247,1.1971008777618408,1.6112977266311646,-9.682151794433594,
1557221334650,0.10104965519623299,1.173158884048462,1.6304513216018677,-9.6989107131958,
1557221334670,,1.2042834758758545,1.6543933153152466,,
1557221334671,0.0985378525878258,,,-9.684545516967773,
1557221334690,,1.213860273361206,1.656787633895874,,
1557221334691,0.1222641778744501,,,-9.708487510681152,
1557221334711,0.10673221804751742,1.1971008777618408,1.6687586307525635,-9.68694019317627,
1557221334731,,1.2066776752471924,,,
1557221334732,0.09531538130360495,,1.6519991159439087,-9.682151794433594,
1557221334753,0.09500558795932926,1.192312479019165,1.6352397203445435,-9.691728591918945,
1557221334773,0.12482751553962418,1.1899182796478271,1.6208745241165161,-9.725247383117676,
1557221334794,0.12403168237869815,1.1827356815338135,1.6112977266311646,-9.725247383117676,1013.0263671875
1557221334816,0.10044032733037932,1.192312479019165,1.6041151285171509,-9.701305389404297,
1557221334835,0.09181167097769095,1.1827356815338135,1.623268723487854,-9.691728591918945,
1557221334856,0.09769162967669606,1.1683704853057861,1.623268723487854,,
1557221334857,,,,-9.696516990661621,
1557221334875,,1.170764684677124,,,
1557221334876,0.11310097721214812,,1.6328455209732056,-9.710882186889648,
1557221334895,0.11992258497270299,1.1683704853057861,1.6065093278884888,-9.720458984375,
1557221334916,,1.1516109704971313,,,
1557221334917,0.13684516920245401,,1.6328455209732056,-9.732429504394531,
1557221334936,0.10486750180182354,1.1779472827911377,1.599326729774475,,
1557221334937,,,,-9.706093788146973,
1557221334957,,1.1563993692398071,,,
1557221334958,0.08014731209542385,,1.6352397203445435,-9.672574996948242,
1557221334977,0.0913565606586879,1.1204863786697388,1.5705963373184204,,1013.018310546875
1557221334978,,,,-9.660603523254395,
1557221334999,,1.137245774269104,1.5825673341751099,,
1557221335000,0.16624334088949966,,,-9.761159896850586,
1557221335018,0.2021632903166461,1.3551181554794312,1.6663644313812256,-9.682151794433594,
1557221335038,0.11006944174729767,1.213860273361206,1.5945383310317993,-9.706093788146973,
1557221335057,,1.2641384601593018,,,
1557221335058,0.1520065096163953,,1.644816517829895,-9.72285270690918,
1557221335079,0.14034883880308144,1.278503656387329,1.7070658206939697,-9.617507934570312,
1557221335100,0.16592391229663553,1.2737152576446533,1.7357962131500244,-9.648633003234863,
1557221335120,,1.3072341680526733,1.7621324062347412,,
1557221335121,0.22335457463424832,,,-9.6989107131958,
1557221335140,0.16808942961827406,1.2617442607879639,1.7262194156646729,-9.68694019317627,
1557221335160,0.09642419386081172,1.1875240802764893,1.6328455209732056,,1013.0146484375
1557221335161,,,,-9.694122314453125,
1557221335180,,1.091755986213684,,,
1557221335181,0.15482460987267357,,1.5322890281677246,-9.713275909423828,
1557221335200,0.1950456608443641,1.0654197931289673,1.482010841369629,,
1557221335201,,,,-9.720458984375,
1557221335221,0.20685361943297573,1.0438719987869263,1.479616641998291,-9.725247383117676,
1557221335244,0.18458746774863954,1.072602391242981,1.50355863571167,-9.739612579345703,
1557221335260,0.16176027603318532,1.072602391242981,1.5490485429763794,-9.734824180603027,
1557221335280,0.15262355540230044,1.0965443849563599,1.5873557329177856,-9.744400978088379,
1557221335300,0.1074191006388895,1.1180921792984009,1.6136919260025024,-9.701305389404297,
1557221335320,0.09644196404461072,1.1683704853057861,1.625662922859192,-9.696516990661621,
1557221335340,,1.2066776752471924,1.6400281190872192,,
1557221335341,0.10608109010296553,,,-9.691728591918945,1013.0146484375
1557221335361,0.1414185821572163,1.2473790645599365,1.656787633895874,-9.703699111938477,
1557221335380,,1.2545616626739502,,,
1557221335381,0.14789021136774658,,1.6352397203445435,-9.718064308166504,
1557221335401,0.13648232044143105,1.2521674633026123,1.6615760326385498,-9.691728591918945,
1557221335420,,1.2641384601593018,1.680729627609253,,
1557221335421,0.1555078823833984,,,-9.696516990661621,
1557221335442,0.1384601454156558,1.2617442607879639,1.6711528301239014,-9.679757118225098,
1557221335460,,1.2497732639312744,1.6543933153152466,,
1557221335461,0.12260092426008247,,,-9.679757118225098,
1557221335480,,1.213860273361206,,,
1557221335481,0.10019267154953429,,1.6280571222305298,-9.68933391571045,
1557221335500,0.12755207941712882,1.158793568611145,1.599326729774475,-9.732429504394531,
1557221335521,0.15674695617817266,1.094150185585022,1.5514427423477173,-9.739612579345703,1013.01318359375
1557221335540,0.18241373244089937,1.0678139925003052,1.5418659448623657,-9.75397777557373,
1557221335561,0.16055381671720795,1.0654197931289673,1.5298948287963867,-9.720458984375,
1557221335582,0.19348416973325852,1.0630255937576294,1.5418659448623657,-9.768342971801758,
1557221335602,0.1595584131891171,1.091755986213684,1.5610195398330688,-9.749189376831055,
1557221335621,,1.173158884048462,,,
1557221335622,0.11414479918422527,,1.5705963373184204,-9.718064308166504,
1557221335643,0.09497036480291753,1.1899182796478271,1.5897499322891235,-9.696516990661621,
1557221335663,0.10148306179151392,1.1803414821624756,1.6328455209732056,-9.6989107131958,
1557221335683,0.14082231189509414,1.1994950771331787,1.7094600200653076,-9.684545516967773,
1557221335704,0.11614512334985795,1.192312479019165,1.6927006244659424,-9.670180320739746,1013.009033203125
1557221335725,0.12451456852063922,1.213860273361206,1.6759412288665771,-9.694122314453125,
1557221335746,,1.2330138683319092,,,
1557221335747,0.10372450285447866,,1.6424223184585571,-9.677363395690918,
1557221335768,0.088134998099319,1.2042834758758545,1.6160861253738403,-9.684545516967773,
1557221335786,,1.2186486721038818,,,
1557221335787,0.10074390580751995,,1.5897499322891235,-9.691728591918945,
1557221335808,0.1160149484351368,1.2042834758758545,1.5658079385757446,-9.708487510681152,
1557221335826,,1.2114660739898682,,,
1557221335827,0.10420688558042729,,1.6304513216018677,-9.696516990661621,
1557221335846,,1.2018892765045166,,,
1557221335847,0.09960697208572938,,1.6328455209732056,-9.694122314453125,
1557221335866,,1.170764684677124,,,
1557221335867,0.10661458196983219,,1.6208745241165161,-9.708487510681152,
1557221335887,0.11176844988575037,1.1540051698684692,1.6089035272598267,-9.713275909423828,1013.01171875
1557221335906,0.09588776022056852,1.1755530834197998,1.599326729774475,-9.6989107131958,
1557221335926,0.137631821028958,1.1492167711257935,1.5705963373184204,,
1557221335927,,,,-9.734824180603027,
1557221335947,,1.1516109704971313,,,
1557221335948,0.12253803673492109,,1.5729905366897583,-9.720458984375,
1557221335967,0.13265883447715307,1.1563993692398071,1.5897499322891235,-9.734824180603027,
1557221335986,0.12971905732262032,1.173158884048462,1.6184803247451782,-9.732429504394531,
1557221336007,0.11896892197413399,1.173158884048462,1.601720929145813,-9.72285270690918,
1557221336026,,1.1779472827911377,1.601720929145813,,
1557221336027,0.11668192364210477,,,-9.720458984375,
1557221336046,0.0945385463121415,1.1971008777618408,1.6376339197158813,-9.68694019317627,
1557221336066,,1.1994950771331787,,,
1557221336067,0.0871963684551965,,1.6328455209732056,-9.679757118225098,1013.0126953125
1557221336086,0.10719728834567785,1.1779472827911377,1.6328455209732056,-9.706093788146973,
1557221336106,0.12431850776184655,1.1659762859344482,1.6136919260025024,,
1557221336107,,,,-9.727641105651855,
1557221336126,,1.1994950771331787,,,
1557221336127,0.10843199133279026,,1.599326729774475,-9.708487510681152,
1557221336146,,1.1563993692398071,,,
1557221336147,0.1100964551315039,,1.5969325304031372,-9.713275909423828,
1557221336167,,1.139639973640442,,,
1557221336168,0.1553627333198948,,1.6089035272598267,-9.75637149810791,
1557221336188,,1.1444283723831177,,,
1557221336189,0.12420534325472501,,1.6136919260025024,-9.725247383117676,
1557221336208,0.09003790318866038,1.1755530834197998,1.5969325304031372,,
1557221336209,,,,-9.694122314453125,
1557221336228,,1.161187767982483,1.6208745241165161,,
1557221336229,0.09471217763948352,,,-9.696516990661621,
1557221336249,0.1034093752380396,1.1875240802764893,1.601720929145813,-9.706093788146973,1013.021484375
1557221336269,,1.1899182796478271,,,
