timestamp,LinearAccelerometerSensor,AccX,AccY,AccZ,BarometerSensor
1557590061596,,,,,1006.92529296875
1557590061597,0.1979495834701031,-0.24181437492370605,3.3877954483032227,9.124302864074707,
1557590061671,,-0.3064578175544739,,,
1557590061673,0.4306501183014834,,3.3877954483032227,8.738836288452148,
1557590061686,0.1854334132975589,-0.33997663855552673,3.4093432426452637,9.311050415039062,
1557590061746,0.3082192720116584,-0.1149216815829277,3.4763808250427246,8.908824920654297,1006.941162109375
1557590061810,0.1870378222063692,-0.28730419278144836,3.308786630630493,9.294290542602539,
1557590061866,0.216859499160266,-0.15322890877723694,3.3231520652770996,9.057265281677246,
1557590061927,0.27864219389823364,-0.304063618183136,3.31118106842041,9.445125579833984,1006.963134765625
1557590061991,0.4499676639806852,-0.2059013396501541,3.292027235031128,8.774748802185059,
1557590062047,0.26786315661446053,-0.1628057211637497,3.31118106842041,9.411606788635254,
1557590062108,0.20536253145356853,-0.45489832758903503,3.3877954483032227,9.363722801208496,1006.9560546875
1557590062168,0.06705258485639003,-0.37828385829925537,3.488351821899414,9.114726066589355,
1557590062228,0.483359549143026,-0.608127236366272,3.1292216777801514,8.949525833129883,
1557590062292,0.6236172878150176,-0.17956513166427612,3.3231520652770996,8.578424453735352,1006.953369140625
1557590062355,0.5363485878349086,-0.12449848651885986,3.0550012588500977,9.703699111938477,
1557590062421,0.19902180305086847,-0.27054479718208313,3.354276657104492,9.064447402954102,
1557590062489,0.1831154782420397,-0.05267243832349777,3.251325845718384,9.186552047729492,1006.96923828125
1557590062539,0.24928090865967942,-0.12210428714752197,3.1866824626922607,9.035717010498047,
1557590062607,,-0.14365209639072418,,,
1557590062608,0.1836276631788638,,3.397372245788574,9.387664794921875,
1557590062661,,-0.038307227194309235,3.4763808250427246,,1006.97119140625
1557590062662,0.6994569681659172,,,9.854534149169922,
1557590062722,1.764891412977076,1.1851298809051514,3.0310592651367188,8.418013572692871,
1557590062774,1.4403546226468336,-0.5841852426528931,5.0900726318359375,7.9846625328063965,
1557590062839,,,,,1006.981689453125
1557590062840,2.0129344637076203,-0.08619125932455063,3.866635799407959,6.921637058258057,
1557590062906,1.439502979176106,-1.7334020137786865,4.134786128997803,8.063671112060547,
1557590062956,0.759873762500908,-0.6727706789970398,3.7876269817352295,9.653421401977539,
1557590063030,0.5359790352165945,-0.3878606855869293,4.321534156799316,9.148244857788086,1006.989990234375
1557590063081,,-0.8331822156906128,3.711012601852417,,
1557590063082,0.1751559261077418,,,9.059659004211426,
1557590063138,0.6259917258867543,-1.0845733880996704,3.179499864578247,9.332598686218262,
1557590063197,0.6844193840440478,-0.17238251864910126,3.550601005554199,8.686163902282715,1006.978759765625
1557590063261,0.19731659749996203,-0.5363011956214905,3.4548330307006836,8.971074104309082,
1557590063319,1.0260884553468603,-0.11252748221158981,4.125209331512451,9.856928825378418,
1557590063379,,,,,1006.942626953125
1557590063380,,-0.42377370595932007,2.669534921646118,9.720458984375,
1557590063381,0.7991407757232282,,,,
1557590063441,,-0.9768342971801758,,,
1557590063442,1.0466121514412268,,2.561795711517334,8.530540466308594,
1557590063500,0.5816410728232541,-0.23702596127986908,3.1028854846954346,9.543288230895996,
1557590063564,,,,,1006.9423828125
1557590063566,1.028630484293448,-0.6631938815116882,3.4596214294433594,10.244789123535156,
1557590063621,1.5730552443875394,-0.9983820915222168,2.626439332962036,10.737994194030762,
1557590063682,,-2.006340980529785,,,
1557590063683,1.7731370713445267,,1.800439715385437,9.533711433410645,
1557590063745,,-0.5482721924781799,,,1006.923583984375
1557590063746,0.5566057696221284,,2.7676970958709717,8.884882926940918,
1557590063805,,-1.0414776802062988,2.7269957065582275,,
1557590063806,0.802465760519622,,,8.7484130859375,
1557590063865,,-0.363918662071228,,,
1557590063867,0.45773766202148464,,2.980781078338623,8.916007041931152,
1557590063928,,-0.07422025501728058,,,1006.941162109375
1557590063929,0.6469439575739815,,3.397372245788574,8.786720275878906,
1557590063993,1.3367414230662238,0.09576806426048279,2.473210334777832,8.190564155578613,
1557590064048,1.2696197009451595,0.24420857429504395,1.2665326595306396,8.93037223815918,
1557590064105,4.9044446600095,2.9041666984558105,0.6655880808830261,13.333309173583984,1006.954833984375
1557590064166,4.836511334466997,4.570530891418457,0.790086567401886,11.109095573425293,
1557590064226,,2.434903144836426,,,
1557590064227,2.983013381708037,,-0.5793967843055725,9.064447402954102,
1557590064287,2.971434012345164,1.5682021379470825,0.09576806426048279,7.2568254470825195,1006.951171875
1557590064348,4.290840933659595,-1.3407529592514038,0.7134721279144287,8.11634349822998,
1557590064406,3.294611728002779,-0.8643068075180054,1.2521674633026123,9.41400146484375,
1557590064466,,-2.499546527862549,1.2689268589019775,,1006.9326171875
1557590064467,4.838274414215359,,,9.17697525024414,
1557590064527,2.982521320276407,0.9983820915222168,1.7932571172714233,7.101202011108398,
1557590064586,0.6540245286442232,3.141192674636841,1.2401964664459229,8.990227699279785,
1557590064646,,,,,1006.97705078125
1557590064647,1.5635089668380333,4.046200752258301,0.12689268589019775,7.321468830108643,
1557590064707,4.558372197982183,10.144232749938965,2.5713725090026855,4.266467571258545,
1557590064769,9.184091779217042,14.954183578491211,5.080495834350586,8.851364135742188,
1557590064830,8.341951212061485,15.634137153625488,1.625662922859192,1.5753847360610962,1006.965576171875
1557590065077,2.4493590197634427,10.170568466186523,0.2968810200691223,4.58968448638916,
1557590065090,2.022832713822463,8.588001251220703,1.1803414821624756,7.608773231506348,1006.98779296875
1557590065150,2.0694426238573276,6.279991149902344,1.3311761617660522,4.323928356170654,
1557590065211,7.682677702606618,10.821791648864746,5.937620162963867,-4.378994941711426,
1557590065271,9.333626969577612,9.232041358947754,-1.7860745191574097,-8.705317497253418,1006.956298828125
1557590065333,0.4542607182344123,8.746018409729004,3.0789434909820557,-1.436521053314209,
1557590065392,12.647227445592447,6.914454460144043,1.778891921043396,-16.057910919189453,
1557590065454,3.7617362429013053,10.989385604858398,4.436455726623535,-6.469132900238037,1006.94970703125
1557590065515,,6.557718276977539,4.364629745483398,,
1557590065516,3.0253345146911026,,,-8.911218643188477,
1557590065575,2.70527184409021,4.58968448638916,3.378218650817871,-5.70777702331543,
1557590065635,,7.493851184844971,1.0007762908935547,,1007.020263671875
1557590065636,1.904257874700794,,,-7.709329605102539,
1557590065697,5.059192094801265,10.170568466186523,-1.8986018896102905,-4.963180065155029,
1557590065756,3.378246582553467,8.33182144165039,4.484339714050293,-3.818751811981201,
1557590065817,,5.224148273468018,,,1007.001708984375
1557590065818,2.609091372122858,,2.741360902786255,-9.153033256530762,
1557590065878,,6.967126846313477,2.5115175247192383,,
1557590065879,1.9601550725976684,,,-9.141061782836914,
1557590065937,,6.603208065032959,,,
1557590065938,0.9868371839567915,,2.1523873805999756,-7.242460250854492,
1557590065999,2.1486867309274227,6.627150535583496,3.471592426300049,-8.695740699768066,1006.9736328125
1557590066061,,2.58813214302063,,,
1557590066062,,,8.38688850402832,-4.292803764343262,
1557590066063,7.41644101031765,,,,
1557590066121,3.256172627355341,8.085219383239746,2.4660277366638184,-9.8784761428833,
1557590066181,1.5053443275272056,6.3518171310424805,0.16759411990642548,-6.004657745361328,1007.011474609375
1557590066243,2.4913588913214033,8.973467826843262,1.3263877630233765,-8.092401504516602,
1557590066304,1.7669338675031152,6.378153324127197,2.693476915359497,-7.173028469085693,
1557590066365,,,,,1006.985595703125
1557590066366,0.8718312652447655,5.116408824920654,1.6280571222305298,-7.46033239364624,
1557590066425,0.6114033418152898,5.286397457122803,1.2665326595306396,-8.645462036132812,
1557590066484,3.6599767227683366,4.043806552886963,-3.337517261505127,-8.71489429473877,
1557590068027,2.105053805934401,4.302380561828613,0.768538773059845,-9.794678688049316,1006.961181640625
1557590068035,,3.265691041946411,-0.7350199222564697,-10.189722061157227,
1557590068036,2.0996446899282963,,,,
1557590068095,1.649994607396417,4.807557106018066,-0.8619126081466675,-8.288725852966309,
1557590068155,1.5050718076183762,4.37420654296875,-0.7326257228851318,-8.9064302444458,1007.10791015625
1557590068215,1.7725975299253731,4.017470359802246,-0.26096799969673157,-8.358158111572266,
1557590068277,1.1853307184437964,4.9152960777282715,0.028730420395731926,-8.434772491455078,
1557590068337,,,,,1007.120849609375
1557590068338,1.356143882221276,5.743690013885498,-0.1364694982767105,-9.14585018157959,
1557590068398,1.2166248769420067,5.748478412628174,0.2298433631658554,-8.947132110595703,
1557590068457,,4.553771495819092,,,
1557590068458,0.849129552289041,,0.6607996821403503,-8.537723541259766,
1557590068517,0.9383012208869876,4.158728122711182,0.7829039692878723,-8.403648376464844,1007.105712890625
1557590068577,0.439804868859866,4.307168960571289,0.3423708379268646,-8.619126319885254,
1557590068637,0.4116669218677754,5.109226226806641,-0.047884032130241394,-8.616731643676758,
1557590068700,0.6797245936301922,5.355829238891602,-0.21547815203666687,-8.777143478393555,1007.10498046875
1557590068761,0.44593864055827187,5.035006046295166,-0.3016694188117981,-8.789113998413086,
1557590068819,0.27454229325048196,4.455609321594238,0.0454898327589035,-8.755595207214355,
1557590068880,0.41304526342976233,4.259284973144531,0.14604631066322327,-8.542511940002441,1007.07861328125
1557590068940,0.3829822942236723,4.2951979637146,0.1867477297782898,-8.513781547546387,
1557590068999,0.029485146245651243,4.5609540939331055,-0.026336219161748886,-8.655038833618164,
1557590069059,0.42862293843540905,4.247313976287842,-0.06464344263076782,-8.944737434387207,1007.066650390625
1557590069121,0.15226004819800834,4.446032524108887,0.021547814831137657,-8.719682693481445,
1557590069183,,5.099649429321289,,,
1557590069184,0.4783801451427036,,-0.1149216815829277,-8.746018409729004,
1557590069242,,4.908113479614258,-0.040701430290937424,,1007.03271484375
1557590069243,0.2322508158423073,,,-8.528146743774414,
1557590069304,,4.659116744995117,0.4381389021873474,-8.908824920654297,
1557590069305,0.46809825092486823,,,,
1557590069363,,5.04218864440918,,,
1557590069364,0.7340615597877636,,0.8331822156906128,-8.453926086425781,
1557590069424,0.3950096478068658,4.5394062995910645,0.3495534360408783,-8.884882926940918,1007.002685546875
1557590069484,0.5638680511246011,5.200206279754639,-0.2849099934101105,-8.56645393371582,
1557590069543,0.574137545702083,5.1810526847839355,-0.4812345504760742,-8.556877136230469,
1557590073026,0.23355091971755518,5.049371242523193,-0.14365209639072418,-8.56645393371582,1006.97412109375
1557590073058,0.09186130149892345,4.728548526763916,-0.043095629662275314,-8.674192428588867,
1557590073117,0.1063379787739327,4.747702121734619,-0.06464344263076782,-8.69334602355957,1006.969482421875
1557590073177,0.08600409051889522,4.7405195236206055,-0.038307227194309235,-8.667010307312012,
1557590073239,,4.72376012802124,-0.05985504388809204,-8.65743350982666,
1557590073240,0.06828554458010204,,,,
1557590073299,,,,,1006.982421875
1557590073300,0.08376493451151061,4.733336925506592,-0.047884032130241394,-8.671798706054688,
1557590073361,,4.7189717292785645,,,
1557590073362,0.06814385909899491,,-0.05985504388809204,-8.65982723236084,
1557590073422,0.07098492648674372,4.716577529907227,-0.07422025501728058,-8.664615631103516,
1557590073483,,,,,1006.986328125
1557590073543,0.09187554985323004,4.707000732421875,-0.043095629662275314,-8.683769226074219,
1557590073604,,4.778826713562012,,,
1557590073605,0.1247926795806386,,-0.07900865375995636,-8.705317497253418,
1557590073666,,,,,1006.989501953125
1557590073667,0.07061485673953531,4.7405195236206055,-0.05267243832349777,-8.662221908569336,
1557590073727,,4.707000732421875,-0.0694318488240242,,
1557590073728,0.07406060724918169,,,-8.671798706054688,
1557590073788,0.06026569186274425,4.7189717292785645,-0.05267243832349777,-8.65743350982666,
1557590073850,,,,,1006.978515625
1557590073851,0.09480013399069406,4.788403511047363,-0.05746084079146385,-8.65743350982666,
1557590073912,0.09759786290911616,4.728548526763916,-0.06703764945268631,-8.695740699768066,
1557590073973,,4.6950297355651855,-0.040701430290937424,-8.678980827331543,
1557590073974,0.08383483658983917,,,,
1557590074033,,,,,1006.9833984375
1557590074034,0.08495325294907367,4.733336925506592,-0.047884032130241394,-8.681375503540039,
1557590074096,0.0702210036322721,4.72376012802124,-0.05027823522686958,-8.669404029846191,
1557590074155,,4.716577529907227,,,
1557590074156,0.0746788707340901,,-0.0694318488240242,-8.676587104797363,
1557590074215,0.09300975816751127,4.754884719848633,-0.047884032130241394,-8.681375503540039,1006.98095703125
1557590074275,0.0923051005211758,4.733336925506592,-0.05027823522686958,-8.69095230102539,
1557590074336,0.0847832421923981,4.726154327392578,-0.05985504388809204,-8.686163902282715,
1557590074397,0.04900348169774602,4.730942726135254,-0.06464344263076782,-8.645462036132812,1006.97900390625
1557590074456,0.09753734024904478,4.7189717292785645,-0.05027823522686958,-8.700529098510742,
1557590074516,0.0783343252645922,4.699818134307861,-0.05267243832349777,-8.683769226074219,
1557590074576,0.12289864452093156,4.776432514190674,-0.08379705995321274,-8.700529098510742,1006.968017578125
1557590074636,,4.750096321105957,,,
1557590074637,0.09485987494771601,,-0.035913024097681046,-8.683769226074219,
1557590074696,0.06526558851675301,4.714183330535889,-0.0694318488240242,-8.669404029846191,
1557590074757,0.06352392776998167,4.730942726135254,-0.06224924325942993,-8.662221908569336,1006.964599609375
1557590075037,0.08389477607835907,4.716577529907227,-0.038307227194309235,-8.686163902282715,
1557590075096,,4.752490520477295,,,
1557590075097,0.10145487034146942,,-0.028730420395731926,-8.688557624816895,
1557590075157,0.11280245555268265,4.747702121734619,-0.07422025501728058,-8.707711219787598,1006.969482421875
1557590075217,0.06352975157445037,4.730942726135254,-0.08140286058187485,-8.65743350982666,
1557590075278,0.11011522861726242,4.764461517333984,-0.035913024097681046,-8.69334602355957,
1557590075338,0.10175143604471924,4.757278919219971,-0.07900865375995636,-8.688557624816895,1006.973388671875
1557590075398,0.09179425235816537,4.704606533050537,-0.035913024097681046,-8.695740699768066,
1557590075459,0.07655556644943784,4.702212333679199,-0.05027823522686958,-8.683769226074219,
1557590077028,,4.754884719848633,,,
1557590077029,0.11151885542667628,4.711789131164551,-0.08379705995321274,-8.700529098510742,
1557590077050,0.09380130556042877,4.702212333679199,-0.08140286058187485,-8.700529098510742,
1557590077109,0.09380854824842612,4.7405195236206055,-0.038307227194309235,-8.688557624816895,1006.980224609375
1557590077169,0.08570016795875544,4.738125324249268,-0.033518824726343155,-8.678980827331543,
1557590077229,0.06686692120538816,4.7189717292785645,-0.05267243832349777,-8.671798706054688,
1557590077289,0.07735338632683338,4.716577529907227,-0.05027823522686958,-8.683769226074219,1006.985107421875
1557590077349,0.08041518497934433,4.680664539337158,-0.05506663769483566,-8.69095230102539,
1557590077409,,4.7405195236206055,-0.033518824726343155,-8.695740699768066,
1557590077410,0.10017106225643946,,,,
1557590077470,0.08058973610376052,4.726154327392578,-0.06464344263076782,-8.683769226074219,1006.97900390625
1557590077531,,4.721365928649902,,,
1557590077532,0.09857896241258485,,-0.06464344263076782,-8.705317497253418,
1557590077593,0.08717257650985064,4.7405195236206055,-0.031124621629714966,-8.678980827331543,
1557590077653,,,,,1006.975341796875
1557590077654,0.0905781254724776,4.697423934936523,-0.05506663769483566,-8.702922821044922,
1557590077713,,4.69024133682251,-0.05985504388809204,,
1557590077714,0.08933364101272116,,,-8.702922821044922,
1557590077774,,4.738125324249268,,,
1557590077775,0.09783460542472154,,-0.07182604819536209,-8.695740699768066,
1557590077834,,,,,1006.9736328125
1557590077835,0.10535424250644058,4.7405195236206055,-0.038307227194309235,-8.702922821044922,
1557590077893,,4.714183330535889,,,
1557590077894,0.0775625966676268,,-0.047884032130241394,-8.686163902282715,
1557590077955,0.0638106577165484,4.728548526763916,-0.05506663769483566,-8.662221908569336,
1557590078028,,4.709394931793213,-0.043095629662275314,-8.686163902282715,1006.984130859375
1557590078029,0.07648011952642005,,,,
1557590078073,0.06086699781436029,4.72376012802124,-0.05746084079146385,-8.662221908569336,
1557590078135,,4.745307922363281,,,
1557590078136,0.09877014042291356,,-0.05027823522686958,-8.69334602355957,
1557590078193,,,,,1006.980712890625
1557590078194,0.08385557455851489,4.69024133682251,-0.06224924325942993,-8.698134422302246,
1557590078254,,4.728548526763916,-0.047884032130241394,-8.669404029846191,
1557590078255,0.06997951497336408,,,,
1557590078316,,4.738125324249268,,,
1557590078317,0.07528660854980848,,-0.040701430290937424,-8.667010307312012,
1557590078375,,,,,1006.963623046875
1557590078376,0.10305909937464273,4.709394931793213,-0.08619125932455063,-8.710105895996094,
1557590078437,0.06899428141499252,4.702212333679199,-0.047884032130241394,-8.681375503540039,
1557590078496,,4.76924991607666,,,
1557590078497,0.11233443405272278,,-0.0694318488240242,-8.688557624816895,
1557590078555,,4.738125324249268,-0.035913024097681046,,1006.94580078125
1557590078556,0.07975592865794351,,,-8.671798706054688,
1557590078713,0.06521031627036929,4.711789131164551,-0.05506663769483566,-8.674192428588867,
1557590078736,,,,,1006.9462890625
1557590078737,0.08900221323492097,4.704606533050537,-0.07900865375995636,-8.698134422302246,
1557590078796,0.1006098968710341,4.738125324249268,-0.05746084079146385,-8.700529098510742,
1557590078858,,4.730942726135254,-0.038307227194309235,,
1557590078859,0.07858737376495545,,,-8.676587104797363,
1557590078917,,,,,1006.949951171875
1557590078918,0.08345255078877234,4.726154327392578,-0.040701430290937424,-8.686163902282715,
1557590078977,,4.728548526763916,,,
1557590078978,0.06894402489256797,,-0.0694318488240242,-8.667010307312012,
1557590079038,,4.6950297355651855,-0.0454898327589035,-8.695740699768066,
1557590079039,0.08234157786499335,,,,
1557590079097,,,,,1006.9462890625
1557590079098,0.07573337148517424,4.721365928649902,-0.05746084079146385,-8.681375503540039,
1557590079157,0.08091891648908962,4.742913722991943,-0.047884032130241394,-8.671798706054688,
1557590079218,0.06715229936493639,4.716577529907227,-0.05267243832349777,-8.674192428588867,
1557590079277,,,,,1006.9443359375
1557590079278,0.08629474296540054,4.707000732421875,-0.05746084079146385,-8.698134422302246,
1557590079337,0.0698157685508497,4.7189717292785645,-0.0694318488240242,-8.674192428588867,
1557590079397,0.09315835007562517,4.702212333679199,-0.08140286058187485,-8.702922821044922,
1557590079458,0.07656898969763457,4.707000732421875,-0.05746084079146385,-8.688557624816895,1006.9453125
1557590079518,0.07130902807667137,4.733336925506592,-0.05746084079146385,-8.667010307312012,
1557590079578,,4.709394931793213,-0.07422025501728058,,
1557590079579,0.09250165883877257,,,-8.702922821044922,
1557590079638,0.0766520009896545,4.742913722991943,-0.05985504388809204,-8.664615631103516,1006.9580078125
1557590079698,0.07319849300386082,4.709394931793213,-0.06464344263076782,-8.683769226074219,
1557590079758,,4.67827033996582,,,
1557590079759,0.07258558644045715,,-0.05746084079146385,-8.688557624816895,
1557590079819,0.11243225813177292,4.759673118591309,-0.06224924325942993,-8.698134422302246,1006.979248046875
1557590079879,0.08485117212431748,4.745307922363281,-0.040701430290937424,-8.671798706054688,
1557590079940,,4.699818134307861,-0.06464344263076782,-8.69334602355957,
1557590079941,0.07974365502056657,,,,
1557590080002,0.08628736068615421,4.733336925506592,-0.05267243832349777,-8.686163902282715,1006.9892578125
1557590080061,,4.6950297355651855,-0.06224924325942993,-8.69095230102539,
1557590080062,0.07609959376257418,,,,
1557590080122,,4.692635536193848,-0.0694318488240242,-8.702922821044922,
1557590080123,0.08770700453233403,,,,
1557590080181,,,,,1006.985107421875
1557590080182,0.07696913150904988,4.72376012802124,-0.040701430290937424,-8.678980827331543,
1557590080241,0.07350606431523247,4.711789131164551,-0.05506663769483566,-8.683769226074219,
1557590080301,0.08133134105875588,4.730942726135254,-0.06224924325942993,-8.681375503540039,
1557590080361,,4.766855716705322,-0.07182604819536209,,1006.995361328125
1557590080362,0.11318175698633957,,,-8.69095230102539,
1557590080423,0.07233809368686873,4.704606533050537,-0.035913024097681046,-8.681375503540039,
1557590080485,,4.683058738708496,,,
1557590080486,0.07920250515404584,,-0.05746084079146385,-8.695740699768066,
1557590080545,,4.704606533050537,-0.0694318488240242,,1006.983154296875
1557590080546,0.05635453393768589,,,-8.667010307312012,
1557590080604,0.11111108218836739,4.711789131164551,-0.10295066982507706,-8.71489429473877,
1557590080665,0.09686562450479207,4.721365928649902,-0.08140286058187485,-8.702922821044922,
1557590080725,0.08493783790248888,4.733336925506592,-0.05985504388809204,-8.683769226074219,1006.9951171875
1557590094027,0.06423766434820685,4.728548526763916,-0.05506663769483566,-8.65982723236084,
1557590094039,0.08023411397882216,4.711789131164551,-0.09576806426048279,-8.683769226074219,1007.01318359375
1557590094094,0.08728532042949923,4.745307922363281,-0.08858546614646912,-8.671798706054688,
1557590094155,0.09485555989267701,4.716577529907227,-0.10055647045373917,-8.698134422302246,
1557590094216,0.06687978595916849,4.702212333679199,-0.09576806426048279,-8.674192428588867,1007.005126953125
1557590094276,0.12739263894959502,4.742913722991943,-0.10773907601833344,-8.722076416015625,
1557590094336,0.06086485564439012,4.639962673187256,-0.08858546614646912,-8.662221908569336,
1557590094396,,,,,1007.0068359375
1557590094397,0.1382846193388034,4.776432514190674,-0.11252748221158981,-8.707711219787598,
1557590094458,0.10477079700160362,4.680664539337158,-0.12689268589019775,-8.710105895996094,
1557590094518,,4.654327869415283,-0.090979665517807,-8.678980827331543,
1557590094519,0.06430606247997574,,,,
1557590094578,,,,,1006.99609375
1557590094579,0.07150102158359328,4.728548526763916,-0.1149216815829277,-8.652645111083984,
1557590094638,,4.711789131164551,,,
1557590094639,0.08037807821283047,,-0.0694318488240242,-8.69095230102539,
1557590094698,0.09612240712918824,4.733336925506592,-0.0933738648891449,-8.695740699768066,
1557590094759,,,,,1006.998291015625
1557590094760,0.1119395581508287,4.72376012802124,-0.1364694982767105,-8.705317497253418,
1557590094820,,4.685452938079834,-0.10534487664699554,-8.7268648147583,
1557590094821,0.1093089125427891,,,,
1557590094882,,4.67827033996582,,,
1557590094883,0.049962282949320466,,-0.09576806426048279,-8.669404029846191,
1557590094940,0.11833063711519332,4.776432514190674,-0.08858546614646912,-8.681375503540039,1006.994140625
1557590095002,0.08037498738161228,4.632780075073242,-0.10055647045373917,-8.688557624816895,
1557590095064,0.12099309552705997,4.7405195236206055,-0.10773907601833344,-8.719682693481445,
1557590110025,,4.675876140594482,-0.1149216815829277,,1006.99072265625
1557590110026,0.06245994029104929,,-0.1149216815829277,-8.678980827331543,
1557590110060,,4.699818134307861,-0.17477671802043915,-8.676587104797363,
1557590110061,0.10093572591397658,,,,
1557590110118,0.11904088519982256,4.72376012802124,-0.17477671802043915,-8.698134422302246,
1557590110178,0.07264668609369607,4.687847137451172,-0.1173158809542656,-8.69095230102539,1006.999755859375
1557590110238,,4.778826713562012,,,
1557590110239,0.14429126610876114,,-0.16998831927776337,-8.695740699768066,
1557590110299,0.07799408195355266,4.663905143737793,-0.17238251864910126,-8.667010307312012,
1557590110359,,,,,1006.986328125
1557590110360,0.10219165442126633,4.726154327392578,-0.1628057211637497,-8.69334602355957,
1557590110420,0.07277485846597766,4.721365928649902,-0.15322890877723694,-8.662221908569336,
1557590110480,0.08527163171625489,4.716577529907227,-0.16519992053508759,-8.678980827331543,
1557590110541,0.08777793176296256,4.72376012802124,-0.15801730751991272,-8.683769226074219,1006.9814453125
1557590110601,0.04953730324706226,4.666299343109131,-0.14365209639072418,-8.664615631103516,
1557590110663,0.0822555959643653,4.711789131164551,-0.15801730751991272,-8.686163902282715,
1557590110723,,4.807557106018066,,,1006.989990234375
1557590110724,0.14222148813919808,,-0.1867477297782898,-8.635885238647461,
1557590110783,,4.714183330535889,,,
1557590110784,0.06712874599256746,,-0.16519992053508759,-8.664615631103516,
1557590110845,0.08177501532112195,4.699818134307861,-0.1412578970193863,-8.695740699768066,
1557590110904,0.08744021879066845,4.697423934936523,-0.1628057211637497,-8.698134422302246,1006.9931640625
1557590110963,,4.7405195236206055,-0.14604631066322327,,
1557590110964,0.09076925093358865,,,-8.683769226074219,
1557590162026,,4.656722068786621,,,1006.996337890625
1557590162027,0.0627970157286184,,-0.17238251864910126,-8.667010307312012,
1557590162044,,4.649539470672607,-0.08140286058187485,,
1557590162045,0.08298333873112532,,,-8.676587104797363,
1557590162104,0.045686254179239986,4.659116744995117,-0.1364694982767105,-8.669404029846191,1007.046630859375
1557590162164,0.15341724684537533,4.711789131164551,-0.016759412363171577,-8.724471092224121,
1557590162226,0.3662134399328563,4.558559894561768,-0.10055647045373917,-8.279149055480957,
1557590162285,,4.656722068786621,-0.17717093229293823,-9.469067573547363,1007.047119140625
1557590162286,0.8477084587648952,,,,
1557590162345,,4.120420932769775,-0.507570743560791,,
1557590162346,0.608645344654074,,,-8.406042098999023,
1557590162406,0.8325669261160945,4.759673118591309,0.22026655077934265,-7.9415669441223145,
1557590162465,,5.0014872550964355,,,1007.05419921875
1557590162466,0.5345996273032336,,-0.3256114423274994,-9.023746490478516,
1557590162525,,4.3861775398254395,,,
1557590162526,0.3398925702336566,,-0.10295066982507706,-8.813055992126465,
1557590162587,0.9385533455232491,5.530605792999268,-0.23702596127986908,-8.078036308288574,
1557590162646,1.212416895741807,5.52821159362793,-0.7757213711738586,-9.342175483703613,1007.056884765625
1557590162707,1.246105421244813,4.089296340942383,0.9409212470054626,-8.389283180236816,
1557590162766,,3.507505416870117,,,
1557590162767,1.1002754646792088,,-0.11971008777618408,-8.56884765625,
1557590162825,0.759922668387594,4.623203277587891,-0.9361328482627869,-8.35097599029541,1007.040283203125
1557590162885,0.7633990803005204,5.183446884155273,-0.8882488012313843,-8.69334602355957,
1557590162946,,4.529829502105713,0.033518824726343155,,
1557590162947,0.3609317770830391,,,-8.822632789611816,
1557590169029,0.45492750958021283,4.709394931793213,0.28730419278144836,-8.702922821044922,1007.04443359375
1557590169056,,,,,1007.058837890625
1557590169057,0.5254149874459442,4.24970817565918,-0.15801730751991272,-8.355764389038086,
1557590169115,0.3599095515366116,4.955997467041016,0.10295066982507706,-8.678980827331543,
1557590169176,0.4794203632580673,5.157110691070557,-0.45489832758903503,-8.688557624816895,
1557590169235,0.33752914894466524,4.733336925506592,-0.5722141861915588,-8.576030731201172,1007.072021484375
1557590169296,,4.623203277587891,,,
1557590169297,0.18311834671510957,,-0.21547815203666687,-8.729259490966797,
1557590169358,0.2534579206957999,4.8267107009887695,0.040701430290937424,-8.707711219787598,
1557590169418,0.28841155449009565,4.414907932281494,-0.05746084079146385,-8.611943244934082,1007.07080078125
1557590169478,,4.321534156799316,,,
1557590169479,0.34512720789716056,,-0.043095629662275314,-8.65743350982666,
1557590169538,,4.955997467041016,,,
1557590169539,0.3075421438567918,,-0.08379705995321274,-8.647856712341309,
1557590169597,,,,,1007.06640625
1557590169598,0.19124238142409436,4.4939165115356445,-0.13168109953403473,-8.755595207214355,
1557590169658,,4.412513732910156,-0.12210428714752197,-8.69334602355957,
1557590169659,0.214326070103365,,,,
1557590169718,,4.558559894561768,,,
1557590169719,0.16949439812858455,,0.035913024097681046,-8.614337921142578,
1557590169778,0.1089603149695503,4.69024133682251,-0.033518824726343155,-8.616731643676758,1007.058349609375
1557590169838,0.1202296258002069,4.786009311676025,-0.1388636976480484,-8.621520042419434,
1557590169898,,4.63517427444458,-0.2537853717803955,-8.655038833618164,
1557590169899,0.12280520669863902,,,,
1557590169957,,,,,1007.06494140625
1557590169958,,4.920084476470947,-0.18914192914962769,,
1557590169959,0.21826252094437137,,,-8.635885238647461,
1557590190032,0.26927991565215703,4.989516258239746,-0.1843535304069519,-8.647856712341309,1007.064697265625
1557590190063,,4.704606533050537,,,
1557590190064,0.05523751611424488,,-0.2059013396501541,-8.631096839904785,
1557590190127,0.07913135921033707,4.69024133682251,-0.2082955539226532,-8.662221908569336,
1557590190184,0.07253402406925545,4.728548526763916,-0.23702596127986908,-8.62391471862793,1007.060302734375
1557590190244,0.08641882238012583,4.750096321105957,-0.2059013396501541,-8.669404029846191,
1557590190304,0.09183489742525723,4.750096321105957,-0.2346317619085312,-8.65982723236084,
1557590190365,0.05377688044516585,4.699818134307861,-0.21308395266532898,-8.640673637390137,1007.0615234375
1557590190425,,4.728548526763916,-0.19871874153614044,,
1557590190426,0.024682627752435765,,,-8.604761123657227,
1557590190485,0.08163711401129418,4.752490520477295,-0.22744916379451752,-8.655038833618164,
1557590190546,0.05602823515531784,4.7405195236206055,-0.22026655077934265,-8.633491516113281,1007.063720703125
1557590190606,,4.668693542480469,-0.2106897532939911,-8.652645111083984,
1557590190607,0.07020458576254197,,,,
1557590190666,,4.730942726135254,-0.22266076505184174,-8.631096839904785,
1557590190667,0.049358873683862776,,,,
1557590190725,,,,,1007.06787109375
1557590190726,,4.745307922363281,-0.19393034279346466,,
1557590190727,0.03628743761919115,,,-8.604761123657227,
1557590190786,0.05298378694036974,4.704606533050537,-0.22744916379451752,-8.640673637390137,
1557590190847,0.06331189511458304,4.7189717292785645,-0.2298433631658554,-8.652645111083984,
1557590190907,,4.7620673179626465,,,1007.064208984375
1557590190908,0.07446381927911731,,-0.22266076505184174,-8.645462036132812,
1557590190978,0.05064431627377255,4.72376012802124,-0.2346317619085312,-8.633491516113281,
1557590192025,,4.692635536193848,-0.21787235140800476,-8.645462036132812,1007.06201171875
1557590192026,0.04882593626838866,,,,
1557590192069,0.06292210658755239,4.738125324249268,-0.24420857429504395,-8.640673637390137,
1557590192128,0.031086133497010473,4.72376012802124,-0.21308395266532898,-8.62630844116211,
1557590192187,,,,,1007.055908203125
1557590192188,0.04773507975777599,4.7189717292785645,-0.22744916379451752,-8.643068313598633,
1557590192248,0.03043918745807958,4.73573112487793,-0.19871874153614044,-8.60236644744873,
1557590192309,,4.730942726135254,,,
1557590192310,0.033224092202435905,,-0.1843535304069519,-8.60236644744873,
1557590192369,,,,,1007.048095703125
1557590192370,0.08326526434747435,4.742913722991943,-0.2322375625371933,-8.671798706054688,
1557590192429,,4.6950297355651855,-0.2561795711517334,-8.647856712341309,
1557590192430,0.06711935285570483,,,,
1557590192489,0.09162763964563922,4.774038314819336,-0.19871874153614044,-8.662221908569336,
1557590192550,0.02835845126238384,4.721365928649902,-0.21787235140800476,-8.62391471862793,1007.054931640625
1557590192609,,4.836287498474121,,,
1557590192610,0.15070584318953822,,-0.26575639843940735,-8.662221908569336,
1557590192670,0.05047271606640164,4.73573112487793,-0.24899697303771973,-8.62630844116211,
1557590192729,,,,,1007.055419921875
1557590192730,0.06131620929154412,4.651933670043945,-0.22266076505184174,-8.619126319885254,
1557590192789,0.05269046341562062,4.738125324249268,-0.21787235140800476,-8.643068313598633,
1557590192849,,4.752490520477295,,,
1557590192850,0.07256786831384313,,-0.23702596127986908,-8.652645111083984,
1557590192910,0.09238889202413218,4.778826713562012,-0.2561795711517334,-8.645462036132812,1007.059326171875
1557590192972,0.04122552777270089,4.697423934936523,-0.17238251864910126,-8.604761123657227,
1557590208025,0.10127079318225025,4.78122091293335,-0.181959331035614,-8.667010307312012,1007.051513671875
1557590208059,0.05962113846501831,4.730942726135254,-0.2059013396501541,-8.655038833618164,
1557590208114,0.041425132325974175,4.699818134307861,-0.2059013396501541,-8.640673637390137,
1557590208174,0.03529309257175277,4.7189717292785645,-0.2106897532939911,-8.633491516113281,1007.025390625
1557590208234,0.05260969584783271,4.707000732421875,-0.21547815203666687,-8.652645111083984,
1557590208294,0.06862785884890163,4.704606533050537,-0.1867477297782898,-8.667010307312012,
1557590208354,0.04871762169417782,4.711789131164551,-0.23942017555236816,-8.638279914855957,1007.024169921875
1557590208414,0.03183376913350735,4.721365928649902,-0.20350714027881622,-8.628703117370605,
1557590208474,0.03369201611229497,4.704606533050537,-0.2106897532939911,-8.635885238647461,
1557590208535,0.034710825703024674,4.7189717292785645,-0.2106897532939911,-8.633491516113281,1007.021484375
1557590208594,0.03112647857275548,4.707000732421875,-0.22026655077934265,-8.631096839904785,
1557590208654,0.06453746638132764,4.726154327392578,-0.19871874153614044,-8.662221908569336,
1557590208715,0.05604528919876628,4.73573112487793,-0.21547815203666687,-8.647856712341309,1007.021484375
1557590208775,0.01057781090984988,4.704606533050537,-0.21308395266532898,-8.611943244934082,
1557590208835,0.05714005989027882,4.697423934936523,-0.21308395266532898,-8.65982723236084,
1557590208895,0.040179092078865934,4.721365928649902,-0.22744916379451752,-8.633491516113281,1007.038818359375
1557590208955,0.05720337065800525,4.6950297355651855,-0.19871874153614044,-8.65982723236084,
1557590209016,0.0380210798004623,4.721365928649902,-0.19632454216480255,-8.633491516113281,
1557590209226,0.04945877506196899,4.726154327392578,-0.19871874153614044,-8.645462036132812,1007.038818359375
1557590209250,,4.711789131164551,,,
1557590209251,0.03588684395267599,,-0.22026655077934265,-8.635885238647461,
1557590209310,0.052793275646654175,4.685452938079834,-0.2082955539226532,-8.655038833618164,
1557590209370,0.036707486926095434,4.721365928649902,-0.20111294090747833,-8.633491516113281,1007.033935546875
1557590209430,,4.733336925506592,,,
1557590209431,0.04683474958375253,,-0.181959331035614,-8.62630844116211,
1557590209492,0.08686108528336399,4.733336925506592,-0.16998831927776337,-8.676587104797363,
1557590209551,,4.716577529907227,-0.22744916379451752,,1007.037841796875
1557590209552,0.040117692498480226,,,-8.633491516113281,
1557590209611,0.08542280061240201,4.752490520477295,-0.19871874153614044,-8.671798706054688,
1557590209672,0.03654565511510922,4.666299343109131,-0.20111294090747833,-8.619126319885254,
1557590209732,,,,,1007.042724609375
1557590209733,0.03568313089393129,4.709394931793213,-0.21308395266532898,-8.638279914855957,
1557590209792,0.03691136713632555,4.716577529907227,-0.181959331035614,-8.628703117370605,
1557590209853,0.04013019750109342,4.711789131164551,-0.20111294090747833,-8.643068313598633,
1557590209912,,,,,1007.0419921875
1557590209913,0.051983590533033516,4.728548526763916,-0.20350714027881622,-8.647856712341309,
1557590209972,,4.711789131164551,-0.19871874153614044,-8.638279914855957,
1557590209973,0.035936897340157994,,,,
1557590210032,,4.7189717292785645,,,
1557590210033,0.03472667579020932,,-0.20350714027881622,-8.633491516113281,
1557590210093,0.05035493329664323,4.69024133682251,-0.1867477297782898,-8.652645111083984,1007.0517578125
1557590210153,,4.754884719848633,-0.17717093229293823,-8.655038833618164,
1557590210213,,4.728548526763916,,,
1557590210214,0.03684084919447427,,-0.18914192914962769,-8.62391471862793,
1557590211027,0.06143067193385639,4.6734819412231445,-0.1843535304069519,-8.662221908569336,1007.055419921875
1557590211031,0.03531377489132686,4.707000732421875,-0.20111294090747833,-8.640673637390137,1007.042724609375
1557590211088,0.04229174269726532,4.73573112487793,-0.19393034279346466,-8.616731643676758,
1557590211149,0.051123797967707274,4.6950297355651855,-0.18914192914962769,-8.65743350982666,
1557590211209,,,,,1007.039794921875
1557590211210,0.03607229693921229,4.72376012802124,-0.18914192914962769,-8.62630844116211,
1557590211269,,4.697423934936523,,,
1557590211270,0.034718057553221465,,-0.22266076505184174,-8.633491516113281,
1557590211330,0.03929285139280034,4.683058738708496,-0.19632454216480255,-8.645462036132812,
1557590211389,0.0397507445733119,4.7189717292785645,-0.21787235140800476,-8.633491516113281,1007.043212890625
1557590211449,0.03128960454187924,4.721365928649902,-0.19393034279346466,-8.621520042419434,
1557590211510,0.04380293803457479,4.704606533050537,-0.19632454216480255,-8.650250434875488,
1557590211571,0.04275827852296986,4.728548526763916,-0.17956513166427612,-8.62391471862793,1007.04052734375
1557590211631,0.05906323457064307,4.692635536193848,-0.20111294090747833,-8.667010307312012,
1557590211691,0.04181318054158581,4.699818134307861,-0.21787235140800476,-8.645462036132812,
1557590211751,0.054480561345837404,4.728548526763916,-0.2298433631658554,-8.638279914855957,1007.043701171875
1557590211811,0.05696821027375561,4.702212333679199,-0.20350714027881622,-8.664615631103516,
1557590211871,0.045427536970917004,4.702212333679199,-0.2082955539226532,-8.652645111083984,
1557590211932,,4.745307922363281,-0.2059013396501541,,1007.048583984375
1557590211933,0.0703633641008641,,,-8.655038833618164,
1557590211991,,4.666299343109131,,,
1557590211992,0.030397805736038595,,-0.21308395266532898,-8.621520042419434,
1557590212204,0.059620386715175534,4.742913722991943,-0.2298433631658554,-8.631096839904785,1007.046875
1557590212261,0.04188515501537303,4.711789131164551,-0.2106897532939911,-8.645462036132812,1007.052001953125
1557590212321,,4.72376012802124,,,
1557590212322,0.03940954717002293,,-0.2059013396501541,-8.633491516113281,
1557590212382,,4.750096321105957,-0.2298433631658554,-8.635885238647461,
1557590212383,0.06603297691167685,,,,
1557590212444,,4.654327869415283,-0.21308395266532898,,1007.053955078125
1557590212445,0.04659270428197879,,,-8.631096839904785,
1557590212504,0.06260470843054262,4.728548526763916,-0.20350714027881622,-8.65982723236084,
1557590212564,0.0552406478311753,4.745307922363281,-0.19871874153614044,-8.628703117370605,
1557590212623,0.050110509127173145,4.685452938079834,-0.22026655077934265,-8.655038833618164,1007.054443359375
1557590212683,0.040848411010812685,4.711789131164551,-0.21787235140800476,-8.643068313598633,
1557590212743,,4.745307922363281,,,
1557590212744,0.08017007270776681,,-0.20350714027881622,-8.669404029846191,
1557590212804,,,,,1007.0546875
1557590212805,0.07663979837086524,4.750096321105957,-0.21787235140800476,-8.65982723236084,
1557590212864,,4.72376012802124,,,
1557590212865,0.03314283802178527,,-0.20111294090747833,-8.62391471862793,
1557590212925,0.05428942270731719,4.6950297355651855,-0.19632454216480255,-8.65982723236084,
1557590212984,,,,,1007.05322265625
1557590212985,0.059562588800722356,4.7189717292785645,-0.24181437492370605,-8.650250434875488,
1557590213044,,4.747702121734619,,,
1557590213045,0.05865227438865114,,-0.1867477297782898,-8.62630844116211,
1557590213106,0.04066096104613253,4.671087741851807,-0.21308395266532898,-8.638279914855957,
1557590213166,,4.721365928649902,-0.19871874153614044,-8.614337921142578,1007.0517578125
1557590213167,0.02799916799201357,,,,
1557590226026,,4.752490520477295,-0.22505496442317963,,
1557590226027,0.08218229669881606,,-0.1867477297782898,-8.664615631103516,
1557590226058,0.09083268891369878,4.771644115447998,-0.20111294090747833,-8.65982723236084,
1557590226116,,4.726154327392578,-0.23702596127986908,,
1557590226117,0.04459009016322299,,,-8.62630844116211,
1557590226177,0.05709841721583458,4.742913722991943,-0.2059013396501541,-8.643068313598633,1007.004638671875
1557590226237,,4.721365928649902,,,
1557590226238,0.03812032913543895,,-0.23942017555236816,-8.616731643676758,
1557590226299,0.04810299309800608,4.7189717292785645,-0.24181437492370605,-8.635885238647461,
1557590226359,0.033808525356441715,4.6950297355651855,-0.21547815203666687,-8.635885238647461,1006.9921875
1557590226419,0.07977189557314374,4.750096321105957,-0.2298433631658554,-8.664615631103516,
1557590226480,0.06463254894690242,4.704606533050537,-0.20111294090747833,-8.667010307312012,
1557590226542,0.09811835153343167,4.78122091293335,-0.2346317619085312,-8.655038833618164,1007.004638671875
1557590226603,0.06317276146908594,4.702212333679199,-0.26096799969673157,-8.62391471862793,
1557590226663,,4.546588897705078,-0.1843535304069519,-8.633491516113281,
1557590226664,0.14454643066687634,,,,
1557590226723,0.07570924631807653,4.685452938079834,-0.1388636976480484,-8.669404029846191,1007.0009765625
1557590226782,,4.7405195236206055,,,
1557590226783,0.07108418864102788,,-0.13168109953403473,-8.614337921142578,
1557590226843,0.057936806279955046,4.711789131164551,-0.20111294090747833,-8.65982723236084,
1557590226903,0.059250834789109336,4.671087741851807,-0.19153612852096558,-8.655038833618164,1007.005859375
1557590226962,,4.793191909790039,,,
1557590226963,0.09006780178141913,,-0.18914192914962769,-8.62391471862793,
1557590230028,,,,,1007.013671875
1557590230029,0.05338226237321346,4.73573112487793,-0.2106897532939911,-8.643068313598633,
1557590230037,,4.639962673187256,-0.181959331035614,-8.643068313598633,1007.01123046875
1557590230038,0.07880168752177984,,,,
1557590230098,,4.7620673179626465,,,
1557590230099,0.09715314493251205,,-0.181959331035614,-8.678980827331543,
1557590230159,0.08801303392575292,4.620809078216553,-0.16759411990642548,-8.638279914855957,
1557590230220,,4.790797710418701,-0.22026655077934265,,1007.015625
1557590230221,0.10496785287680949,,,-8.652645111083984,
1557590230280,,4.661510944366455,,,
1557590230281,0.08067752515658731,,-0.23702596127986908,-8.667010307312012,
1557590230342,0.04070538456423808,4.699818134307861,-0.22266076505184174,-8.640673637390137,
1557590230401,,,,,1007.00439453125
1557590230402,0.05227854202366297,4.680664539337158,-0.20111294090747833,-8.65743350982666,
1557590230463,,4.711789131164551,,,
1557590230464,0.05360049467005872,,-0.19153612852096558,-8.65743350982666,
1557590230523,0.06174662766220038,4.7189717292785645,-0.23702596127986908,-8.652645111083984,
1557590230582,0.03685256127552087,4.728548526763916,-0.2106897532939911,-8.619126319885254,1007.002685546875
1557590230642,,4.702212333679199,,,
1557590230643,0.05787527946284714,,-0.19632454216480255,-8.664615631103516,
1557590230702,,4.764461517333984,,,
1557590230703,0.09656162952907266,,-0.2082955539226532,-8.674192428588867,
1557590230764,0.06239502069848138,4.687847137451172,-0.2106897532939911,-8.669404029846191,1007.0068359375
1557590230823,0.045470602556550575,4.704606533050537,-0.17956513166427612,-8.645462036132812,
1557590230885,0.040291463120677246,4.659116744995117,-0.19871874153614044,-8.638279914855957,
1557590230944,,,,,1007.003173828125
1557590230945,0.07099107622259372,4.726154327392578,-0.2298433631658554,-8.664615631103516,
1557590231005,,4.659116744995117,,,
1557590231006,0.06076627633914687,,-0.1843535304069519,-8.664615631103516,
1557590231066,0.050999854054020105,4.683058738708496,-0.1867477297782898,-8.662221908569336,
1557590231125,,,,,1007.01220703125
1557590231126,0.066243687972288,4.742913722991943,-0.21308395266532898,-8.640673637390137,
1557590231185,,4.6471452713012695,-0.22505496442317963,-8.650250434875488,
1557590231186,0.05476232501738655,,,,
1557590231246,0.030890154088422172,4.663905143737793,-0.17717093229293823,-8.619126319885254,
1557590231305,,4.6950297355651855,,,1007.0234375
1557590231306,0.07139699094892908,,-0.15322890877723694,-8.667010307312012,
1557590231365,0.05914955969597332,4.67827033996582,-0.17238251864910126,-8.669404029846191,
1557590231426,0.12251348919339221,4.790797710418701,-0.181959331035614,-8.667010307312012,
1557590231486,0.08849437820566687,4.747702121734619,-0.2537853717803955,-8.645462036132812,1007.0380859375
1557590231546,0.041339323549332764,4.661510944366455,-0.22026655077934265,-8.640673637390137,
1557590231606,0.05063864510075293,4.671087741851807,-0.2059013396501541,-8.662221908569336,
1557590231666,0.018932574269008056,4.6950297355651855,-0.1867477297782898,-8.619126319885254,1007.045166015625
1557590231725,,4.721365928649902,,,
1557590231726,0.056619775979799565,,-0.17477671802043915,-8.647856712341309,
1557590231786,0.052015307328081184,4.687847137451172,-0.19871874153614044,-8.664615631103516,
1557590231845,,,,,1007.0576171875
1557590231846,0.02495970500782149,4.707000732421875,-0.18914192914962769,-8.62630844116211,
1557590245028,0.061622874193420205,4.637568473815918,-0.2059013396501541,-8.633491516113281,
1557590245076,,,,,1007.03466796875
1557590245077,0.05946837560159473,4.7189717292785645,-0.21787235140800476,-8.65982723236084,
1557590245136,,4.666299343109131,,,
1557590245137,0.06025223799240019,,-0.22266076505184174,-8.655038833618164,
1557590245197,0.04760742676563727,4.702212333679199,-0.21787235140800476,-8.652645111083984,
1557590245258,0.05286930843942339,4.72376012802124,-0.24420857429504395,-8.635885238647461,1007.036865234375
1557590245318,0.049836309996559976,4.666299343109131,-0.21547815203666687,-8.647856712341309,
1557590245379,0.07280074282505622,4.683058738708496,-0.16759411990642548,-8.667010307312012,
1557590245439,0.059841630561363685,4.699818134307861,-0.17717093229293823,-8.65982723236084,1007.056640625
1557590245498,0.03586529112873013,4.656722068786621,-0.21787235140800476,-8.619126319885254,
1557590245559,0.025626608141006084,4.714183330535889,-0.21308395266532898,-8.619126319885254,
1557590245620,,4.671087741851807,-0.2561795711517334,,1007.06689453125
1557590245621,0.05785517921449997,,,-8.643068313598633,
1557590245681,,4.750096321105957,-0.24181437492370605,-8.662221908569336,
1557590245682,0.0809700708045988,,,,
1557590245742,0.05967986476830418,4.730942726135254,-0.23942017555236816,-8.650250434875488,
1557590245801,,4.702212333679199,-0.21787235140800476,-8.652645111083984,1007.076416015625
1557590245802,0.04845951900761513,,,,
1557590245861,0.04535097192861114,4.709394931793213,-0.22505496442317963,-8.647856712341309,
1557590245921,,4.726154327392578,,,
1557590245922,0.04130560963360561,,-0.2346317619085312,-8.631096839904785,
1557590245981,0.045104810123354225,4.726154327392578,-0.23702596127986908,-8.635885238647461,1007.085693359375
1557590246198,,,,,1007.061279296875
1557590246199,0.033163688885591604,4.714183330535889,-0.22744916379451752,-8.633491516113281,
1557590246236,0.032053003251568915,4.69024133682251,-0.21787235140800476,-8.633491516113281,
1557590246296,0.04472715479446101,4.707000732421875,-0.22744916379451752,-8.647856712341309,
1557590246357,0.031026818107831144,4.707000732421875,-0.2298433631658554,-8.633491516113281,1007.064453125
1557590246416,,4.69024133682251,-0.23702596127986908,-8.640673637390137,
1557590246417,0.039382517774372426,,,,
1557590246477,,4.7620673179626465,,,
1557590246478,0.09674860203180265,,-0.2537853717803955,-8.671798706054688,
1557590246537,,4.685452938079834,-0.24660277366638184,,1007.068115234375
1557590246538,0.049169143492552275,,,-8.647856712341309,
1557590246597,0.038186109684352605,4.687847137451172,-0.21308395266532898,-8.640673637390137,
1557590246658,,4.754884719848633,-0.2298433631658554,,
1557590246659,0.08597880692869286,,,-8.669404029846191,
1557590246719,0.03669052852996933,4.716577529907227,-0.21787235140800476,-8.635885238647461,1007.05908203125
1557590246779,0.026767439050323586,4.714183330535889,-0.22266076505184174,-8.62630844116211,
1557590246839,0.04304590937661619,4.7189717292785645,-0.21308395266532898,-8.640673637390137,
1557590246899,,,,,1007.052490234375
1557590246900,,4.687847137451172,,,
1557590246959,0.05231926598056917,4.67827033996582,-0.21547815203666687,-8.655038833618164,
1557590247019,0.024523060196164233,4.716577529907227,-0.2346317619085312,-8.614337921142578,
1557590247079,,,,,1007.04541015625
1557590247080,0.05797020611515084,4.754884719848633,-0.2322375625371933,-8.611943244934082,
1557590247139,,4.752490520477295,,,
1557590247140,0.094176390687886,,-0.24899697303771973,-8.678980827331543,
1557590322027,,,,,1007.05908203125
1557590322028,0.06288008675631568,4.699818134307861,-0.272938996553421,-8.650250434875488,
1557590322030,,4.764461517333984,-0.23942017555236816,,
1557590322031,0.0772721529961764,,,-8.643068313598633,
1557590322090,0.09124283283971266,4.752490520477295,-0.2825157940387726,-8.65743350982666,1007.03466796875
1557590322149,0.03208461116889812,4.728548526763916,-0.2322375625371933,-8.619126319885254,
1557590322210,0.0924364645898668,4.757278919219971,-0.19871874153614044,-8.669404029846191,
1557590322270,,4.687847137451172,-0.22505496442317963,-8.647856712341309,1007.042236328125
1557590322271,0.0467209918543195,,,,
1557590322330,0.07133218036124434,4.707000732421875,-0.19632454216480255,-8.667010307312012,
1557590322391,0.09246037515679567,4.754884719848633,-0.19632454216480255,-8.671798706054688,
1557590322450,,4.764461517333984,-0.26096799969673157,-8.652645111083984,1007.057373046875
1557590322451,0.08704522768843784,,,,
1557590322510,0.04936420135851015,4.738125324249268,-0.24181437492370605,-8.633491516113281,
1557590322571,0.10111005120278985,4.78122091293335,-0.18914192914962769,-8.655038833618164,
1557590322632,0.05612089686327008,4.649539470672607,-0.22266076505184174,-8.619126319885254,1007.060302734375
1557590322691,0.07848599002732563,4.6255974769592285,-0.22026655077934265,-8.628703117370605,
1557590322752,0.0860475085307722,4.754884719848633,-0.21547815203666687,-8.669404029846191,
1557590322812,0.10098658554388146,4.78122091293335,-0.20111294090747833,-8.65982723236084,1007.0546875
1557590322872,0.0528358040342178,4.697423934936523,-0.24420857429504395,-8.652645111083984,
1557590322933,,4.704606533050537,-0.22266076505184174,-8.647856712341309,
1557590322934,0.043867405073929035,,,,
1557590322994,0.10481874739880223,4.778826713562012,-0.1843535304069519,-8.662221908569336,1007.068603515625
1557590323053,,4.683058738708496,-0.2082955539226532,-8.664615631103516,
1557590323054,0.06389695124373246,,,,
1557590323139,0.05425785303972568,4.728548526763916,-0.22266076505184174,-8.650250434875488,
1557590324025,0.025535505993910388,4.716577529907227,-0.21308395266532898,-8.621520042419434,1007.064208984375
1557590324027,,4.754884719848633,,,
1557590324028,0.08260199697999546,,-0.19871874153614044,-8.662221908569336,
1557590324087,0.03928937147608396,4.72376012802124,-0.22266076505184174,-8.635885238647461,1007.03759765625
1557590324147,,4.7189717292785645,,,
1557590324148,0.04974168644864382,,-0.26096799969673157,-8.631096839904785,
1557590324209,0.054029409205396436,4.687847137451172,-0.20350714027881622,-8.650250434875488,
1557590324268,0.08648809783352361,4.7836151123046875,-0.22744916379451752,-8.635885238647461,1007.040771484375
1557590324330,0.06819576712046119,4.6734819412231445,-0.2513911724090576,-8.65743350982666,
1557590324390,0.0632022174291438,4.714183330535889,-0.2059013396501541,-8.662221908569336,
1557590324450,,4.747702121734619,-0.21547815203666687,,1007.042236328125
1557590324451,0.05978873731598749,,,-8.640673637390137,
1557590324510,,4.730942726135254,,,
1557590324511,0.03601747870070817,,-0.23942017555236816,-8.619126319885254,
1557590324571,0.09145572354587443,4.788403511047363,-0.22026655077934265,-8.638279914855957,
1557590324631,0.054552144901865385,4.6950297355651855,-0.22744916379451752,-8.655038833618164,1007.0390625
1557590324691,,4.730942726135254,-0.22744916379451752,-8.638279914855957,
1557590324692,0.04527812138668722,,,,
1557590324751,0.056919013916141833,4.742913722991943,-0.181959331035614,-8.614337921142578,
1557590324811,,4.67827033996582,-0.24420857429504395,,1007.05126953125
1557590324812,0.06324334584141972,,,-8.655038833618164,
1557590324871,,4.661510944366455,-0.1867477297782898,-8.60236644744873,
1557590324872,0.054192121573746484,,,,
1557590324931,0.0953032547734935,4.790797710418701,-0.22744916379451752,-8.640673637390137,
1557590324989,,,,,1007.039794921875
1557590324990,0.07972898782370805,4.752490520477295,-0.2106897532939911,-8.664615631103516,
1557590329027,0.20381270049435354,4.49870491027832,-0.19153612852096558,-8.633491516113281,
1557590329081,,4.809951305389404,-0.16519992053508759,-8.671798706054688,1007.059814453125
1557590329082,0.14184537483741996,,,,
1557590329141,,4.831499099731445,-0.28730419278144836,,
1557590329142,0.124301283786348,,,-8.621520042419434,
1557590329202,0.08021111319676788,4.786009311676025,-0.2561795711517334,-8.530540466308594,
1557590329262,,4.613626480102539,-0.14365209639072418,,1007.05712890625
1557590329263,0.14847667704123416,,,-8.616731643676758,
1557590329321,,4.704606533050537,,,
1557590329322,0.04657866517786741,,-0.19153612852096558,-8.585607528686523,
1557590329383,0.049788259620513954,4.754884719848633,-0.24181437492370605,-8.628703117370605,
1557590329442,,4.807557106018066,,,1007.04638671875
1557590329443,0.06703927745635704,,-0.2346317619085312,-8.614337921142578,
1557590329502,,4.709394931793213,,,
1557590329503,0.07128853013871919,,-0.26336219906806946,-8.611943244934082,
1557590329563,,4.879383087158203,,,
1557590329564,0.12641046894233204,,-0.3256114423274994,-8.576030731201172,
1557590329623,,,,,1007.031494140625
1557590329624,0.0745813834023823,4.865017890930176,-0.26815059781074524,-8.578424453735352,
1557590329684,,4.972756862640381,,,
1557590329685,0.17209346390335523,,-0.181959331035614,-8.53293514251709,
1557590329745,,4.900930881500244,,,
1557590329746,0.10643418280135773,,-0.16759411990642548,-8.56884765625,
1557590329806,,,,,1007.03076171875
1557590329807,0.11625694518210854,4.853046894073486,-0.1628057211637497,-8.628703117370605,
1557590329866,,4.838681697845459,,,
1557590329867,0.07079583841367745,,-0.24420857429504395,-8.604761123657227,
1557590329927,0.06961696383235165,4.759673118591309,-0.2801215946674347,-8.523358345031738,
1557590329985,,,,,1007.0361328125
1557590329986,0.06909214060128377,4.881777286529541,-0.24420857429504395,-8.549694061279297,
1557590338025,0.08850153955740916,4.819528102874756,-0.2106897532939911,-8.62630844116211,
1557590338026,0.07207582008179415,,,,
1557590338046,,5.128379821777344,-0.15562310814857483,-8.346187591552734,
1557590338047,0.37069811561343236,,,,
1557590338106,,5.12119722366333,,,
1557590338107,0.30848450477426176,,-0.12928688526153564,-8.40843677520752,
1557590338167,0.2555783599518472,5.085284233093262,-0.10773907601833344,-8.389283180236816,1007.079833984375
1557590338227,,5.130774021148682,,,
1557590338228,0.2567650294599055,,-0.0933738648891449,-8.391676902770996,
1557590338289,,5.193023681640625,,,
1557590338290,0.2642092421189734,,-0.10534487664699554,-8.406042098999023,
1557590338350,,,,,1007.068603515625
1557590338351,,5.145139217376709,-0.05985504388809204,-8.382100105285645,
1557590338352,0.21029013619685752,,,,
1557590338411,,5.202600479125977,,,
1557590338412,0.20948655409158642,,-0.11013327538967133,-8.396465301513672,
1557590338471,0.1526226034733905,5.154716491699219,-0.13407529890537262,-8.348581314086914,
1557590338532,0.16887488027112374,5.193023681640625,-0.08619125932455063,-8.370129585266113,1007.070068359375
1557590338593,0.14199019408368102,5.185841083526611,-0.1149216815829277,-8.355764389038086,
1557590338654,0.1346394321228995,5.190629482269287,-0.090979665517807,-8.355764389038086,
1557590338713,,5.193023681640625,-0.12210428714752197,-8.327033042907715,1007.07177734375
1557590338714,0.127698507435279,,,,
1557590338773,0.12380195350129292,5.207388877868652,-0.08858546614646912,-8.370129585266113,
1557590338835,0.09718122343972813,5.17626428604126,-0.11252748221158981,-8.31985092163086,
1557590338896,0.10239869910314661,5.202600479125977,-0.090979665517807,-8.365341186523438,1007.078369140625
1557590338976,0.07063276151189661,5.173870086669922,-0.13407529890537262,-8.339004516601562,
1557590351025,,,,,1007.071533203125
1557590351026,0.04496986997248859,5.149928092956543,-0.15322890877723694,-8.346187591552734,
1557590351047,0.31606130281643685,4.850652694702148,-0.0694318488240242,-8.542511940002441,
1557590351106,,,,,1007.046875
1557590351107,0.27664082059338907,4.869806289672852,-0.023942016065120697,-8.540117263793945,
1557590351167,,4.891354084014893,-0.11971008777618408,-8.585607528686523,
1557590351168,0.24785772004831794,,,,
1557590351227,,4.817133903503418,,,
1557590351229,0.33318913465065614,,-0.12210428714752197,-8.686163902282715,
1557590351290,,,,,1007.033447265625
1557590351291,0.2707440002759381,4.7836151123046875,-0.047884032130241394,-8.614337921142578,
1557590351349,,4.874594688415527,,,
1557590351350,0.15857605483083015,,-0.0694318488240242,-8.580819129943848,
1557590351409,0.11825563492313344,4.879383087158203,-0.09816227108240128,-8.554482460021973,
1557590351473,0.08829847385114603,4.876988887786865,-0.08379705995321274,-8.523358345031738,1007.035888671875
1557590351534,0.07304835101283637,4.869806289672852,-0.10055647045373917,-8.497021675109863,
1557590351595,0.10097840508526722,4.888959884643555,-0.08379705995321274,-8.56645393371582,
1557590351654,,,,,1007.042236328125
1557590351655,0.11484067549450205,4.829104900360107,-0.0694318488240242,-8.540117263793945,
1557590351714,,4.927267074584961,,,
1557590351715,0.0779714147574882,,-0.10534487664699554,-8.559270858764648,
1557590351774,0.10604733253673697,4.888959884643555,-0.08858546614646912,-8.588001251220703,
1557590351833,,,,,1007.04248046875
1557590351834,0.0678017797489425,4.910507678985596,-0.08619125932455063,-8.554482460021973,
1557590351894,,4.876988887786865,,,
1557590351895,0.061168307977451104,,-0.07422025501728058,-8.537723541259766,
1557590351955,0.08456472660320652,4.836287498474121,-0.07182604819536209,-8.537723541259766,
1557590352015,,,,,1007.043212890625
1557590352016,0.09719352769404954,4.967968463897705,-0.11252748221158981,-8.561665534973145,
1557590381028,0.06667198278544913,4.853046894073486,-0.0694318488240242,-8.540117263793945,
1557590381036,,,,,1007.029541015625
1557590381037,0.7520414622548879,4.292803764343262,0.3208230137825012,-8.889671325683594,
1557590381096,,4.314351558685303,0.37828385829925537,,
1557590381097,0.6179912982593474,,,-8.83699893951416,
1557590381158,0.4711286117534699,4.343081951141357,0.31842881441116333,-8.865729331970215,
1557590381218,,,,,1007.025390625
1557590381219,0.3899899279381993,4.323928356170654,0.3232172429561615,-8.834604263305664,
1557590381279,0.4397029929288466,4.213795185089111,0.4165911078453064,-8.841787338256836,
1557590381340,,4.244919776916504,0.3878606855869293,-8.889671325683594,
1557590381341,0.3488281621644619,,,,
1557590381399,,,,,1007.028564453125
1557590381400,0.1787240487380598,4.371812343597412,0.28730419278144836,-8.856152534484863,
1557590381460,,4.3622355461120605,0.33039984107017517,-8.83939266204834,
1557590381461,0.1787476319542997,,,,
1557590381520,0.17745061377074958,4.335899353027344,0.30885201692581177,-8.865729331970215,
1557590381579,,,,,1007.016845703125
1557590381580,0.1900800184476206,4.271255970001221,0.3447650372982025,-8.81784439086914,
1557590381639,,4.266467571258545,,,
1557590381640,,,0.3663128614425659,-8.89685344696045,
1557590381641,0.2185267433117478,,,,
1557590381700,0.08881470943792535,4.316745758056641,0.30885201692581177,-8.793902397155762,
1557590381761,,4.309563159942627,0.3495534360408783,,1007.011962890625
1557590381762,0.1339545792349758,,,-8.858546257019043,
1557590381823,,4.3191399574279785,,,
1557590381824,0.18261708550271843,,0.35434186458587646,-8.93037223815918,
1557590381884,0.07159877804983465,4.357447147369385,0.33279404044151306,-8.825027465820312,
1557590381943,,,,,1006.994140625
1557590381944,0.10206655900537831,4.309563159942627,0.3471592366695404,-8.832210540771484,
1557590391026,,4.2975921630859375,0.33518823981285095,-8.846575736999512,1006.99609375
1557590391027,0.19932302849929845,,,,
1557590391074,0.8234296519649247,5.3342814445495605,0.08140286058187485,-8.178592681884766,
1557590391134,0.647937259980543,5.403713226318359,0.07182604819536209,-8.315062522888184,1007.012939453125
1557590391194,,5.30076265335083,0.12689268589019775,,
1557590391254,0.45334090646677805,5.363011837005615,0.07422025501728058,-8.190564155578613,
1557590391315,,5.281609058380127,,,1007.01708984375
1557590391316,0.27234398304004076,,0.090979665517807,-8.288725852966309,
1557590391375,0.26006492065571934,5.2911858558654785,0.1149216815829277,-8.221688270568848,
1557590391435,,5.547365188598633,,,
1557590391436,0.42067397431917153,,0.047884032130241394,-8.334216117858887,
1557590391497,,5.34625244140625,,,1007.033935546875
1557590391498,0.20903518985908198,,0.07422025501728058,-8.233659744262695,
1557590391557,,5.327098846435547,0.14844051003456116,-8.224082946777344,
1557590391558,0.17308925729648664,,,,
1557590391617,,5.307945251464844,,,
1557590391618,0.11753529754014534,,0.1628057211637497,-8.305485725402832,
1557590391676,,,,,1007.0380859375
1557590391677,0.1395022353882783,5.2696380615234375,0.026336219161748886,-8.245630264282227,
1557590391738,0.13582353418592463,5.276820659637451,0.06224924325942993,-8.195352554321289,
1557590391799,,5.52821159362793,,,
1557590391800,0.2960527477208406,,0.12210428714752197,-8.362946510314941,
1557590391860,0.11110248621191876,5.365406036376953,0.11013327538967133,-8.283937454223633,1007.040771484375
1557590391919,0.0976913961108273,5.2911858558654785,0.05267243832349777,-8.209717750549316,
1557590391980,,5.322310447692871,,,
1557590391981,0.059044599497941774,,0.12449848651885986,-8.243236541748047,
1557590392042,,5.446808815002441,0.12928688526153564,-8.305485725402832,1007.041748046875
1557590392043,0.1750432576206937,,,,
1557590392102,,5.284003257751465,,,
1557590392103,0.025249159321431316,,0.09816227108240128,-8.259995460510254,
1557590392161,,5.348646640777588,0.07661445438861847,-8.245630264282227,
1557590392162,0.08021988474608371,,,,
1557590397026,0.1048033306575702,5.396530628204346,0.10773907601833344,-8.283937454223633,1007.044189453125
1557590397076,0.05222002832014032,5.298368453979492,0.0933738648891449,-8.291120529174805,
1557590397133,,5.295974254608154,0.08379705995321274,-8.291120529174805,
1557590397134,0.057813157580476365,,,,
1557590397193,0.04600065091310098,5.317522048950195,0.08619125932455063,-8.274360656738281,1007.03466796875
1557590397253,0.04721659134639597,5.293580055236816,0.0933738648891449,-8.286332130432129,
1557590397314,0.05304412031956873,5.327098846435547,0.0694318488240242,-8.257601737976074,
1557590397375,0.04191745439920734,5.30076265335083,0.10295066982507706,-8.288725852966309,1007.046875
1557590397435,,5.307945251464844,0.0933738648891449,,
1557590397436,0.0446671749623252,,,-8.288725852966309,
1557590397497,0.04226493968866356,5.3342814445495605,0.090979665517807,-8.267178535461426,
1557590397558,,5.305551052093506,0.07182604819536209,-8.310274124145508,1007.041748046875
1557590397559,0.07160997664922795,,,,
1557590397618,0.05278415890797867,5.279214859008789,0.06464344263076782,-8.274360656738281,
1557590397678,,5.319916248321533,,,
1557590397679,0.050837519995963566,,0.07182604819536209,-8.283937454223633,
1557590397737,,5.317522048950195,,,1007.041259765625
1557590397738,0.0535654894642478,,0.07182604819536209,-8.291120529174805,
1557590397797,,5.315127849578857,,,
1557590397798,0.05801501165215281,,0.1149216815829277,-8.305485725402832,
1557590397858,,5.319916248321533,,,
1557590397859,0.03805700450250457,,0.08619125932455063,-8.279149055480957,
1557590397918,,,,,1007.046875
1557590397919,0.047059748085337055,5.286397457122803,0.07182604819536209,-8.288725852966309,
1557590397978,,5.2911858558654785,,,
1557590397979,0.03460122453266563,,0.08379705995321274,-8.283937454223633,
1557590398039,0.07135879685468621,5.319916248321533,0.028730420395731926,-8.26239013671875,
1557590398099,,,,,1007.034423828125
1557590398100,0.045088696669854524,5.339069843292236,0.07900865375995636,-8.259995460510254,
1557590398160,0.044917103783532815,5.315127849578857,0.090979665517807,-8.293514251708984,
1557590398220,0.0582599509697052,5.310339450836182,0.07900865375995636,-8.307879447937012,
1557590398280,,5.286397457122803,0.090979665517807,-8.281543731689453,1007.033935546875
1557590398281,0.02981914765532927,,,,
1557590398339,0.05557633899481942,5.327098846435547,0.043095629662275314,-8.250418663024902,
1557590403025,0.02392315971843149,5.286397457122803,0.08858546614646912,-8.276755332946777,1007.027587890625
1557590403080,,5.307945251464844,,,
1557590403081,0.04881058616357266,,0.08140286058187485,-8.300697326660156,
1557590403142,0.04142160670691091,5.279214859008789,0.07900865375995636,-8.293514251708984,
1557590403203,,,,,1006.99560546875
1557590403204,0.06586127138744836,5.319916248321533,0.12928688526153564,-8.300697326660156,
1557590403262,,5.322310447692871,,,
1557590403263,0.046323720918073324,,0.05506663769483566,-8.26239013671875,
1557590403324,,5.305551052093506,0.07661445438861847,-8.317456245422363,
1557590403325,0.06420886471233168,,,,
1557590403384,0.02939063902682964,5.286397457122803,0.09816227108240128,-8.283937454223633,1006.994140625
1557590403443,,5.310339450836182,,,
1557590403444,0.029068221444262334,,0.08140286058187485,-8.276755332946777,
1557590403504,,5.310339450836182,,,
1557590403505,0.052934056626061765,,0.05506663769483566,-8.293514251708984,
1557590403564,,,,,1007.007080078125
1557590403565,0.06184980513177043,5.305551052093506,0.07182604819536209,-8.315062522888184,
1557590403626,0.0394028055932245,5.315127849578857,0.10055647045373917,-8.283937454223633,
1557590403686,,5.274426460266113,,,
1557590403687,0.022835200975284825,,0.08379705995321274,-8.274360656738281,
1557590403748,0.03637994523511908,5.2911858558654785,0.07900865375995636,-8.293514251708984,1007.018798828125
1557590403807,,5.310339450836182,,,
1557590403808,0.04810502596119754,,0.08140286058187485,-8.300697326660156,
1557590403870,,5.315127849578857,0.090979665517807,-8.288725852966309,
1557590403871,0.04103911102080731,,,,
1557590403929,,,,,1007.0205078125
1557590403930,0.012258702234335839,5.288791656494141,0.07422025501728058,-8.26239013671875,
1557590403990,0.026753226639042456,5.2911858558654785,0.07900865375995636,-8.283937454223633,
1557590404144,0.0324961662839641,5.286397457122803,0.09816227108240128,-8.288725852966309,1007.029296875
1557590404173,,5.279214859008789,,,
1557590404174,0.0511100764430551,,0.07182604819536209,-8.307879447937012,
1557590404234,0.04091384725821816,5.315127849578857,0.07422025501728058,-8.286332130432129,
1557590404293,,5.298368453979492,0.07422025501728058,-8.310274124145508,1007.0322265625
1557590404294,0.05323397008701573,,,,
1557590404354,,5.305551052093506,,,
1557590404355,0.052124905634612834,,0.08858546614646912,-8.307879447937012,
1557590404415,0.034611514963937634,5.288791656494141,0.11252748221158981,-8.281543731689453,
1557590404478,,,,,1007.03955078125
1557590404479,0.038391016245902805,5.298368453979492,0.07182604819536209,-8.293514251708984,
1557590404537,,5.281609058380127,,,
1557590404538,0.04221256364815683,,0.10534487664699554,-8.29830265045166,
1557590404598,0.04502435066757315,5.298368453979492,0.07900865375995636,-8.303091049194336,
1557590404675,0.0344744523123544,5.286397457122803,0.08379705995321274,-8.29590892791748,1007.044921875
1557590539026,,5.286397457122803,,,
1557590539027,0.03217839665809476,5.293580055236816,0.11013327538967133,-8.283937454223633,
1557590539065,0.4508169685638377,4.917690277099609,0.23702596127986908,-8.544905662536621,
1557590539121,0.4158762667068806,4.888959884643555,0.26336219906806946,-8.530540466308594,
1557590539182,0.3271489271473423,4.924872875213623,0.26336219906806946,-8.516175270080566,1007.068603515625
1557590539242,,4.920084476470947,,,
1557590539243,0.2882983959857303,,0.26336219906806946,-8.523358345031738,
1557590539303,0.2609916950526867,4.917690277099609,0.21547815203666687,-8.559270858764648,
1557590539365,0.22905228028651894,4.917690277099609,0.2561795711517334,-8.542511940002441,1007.071044921875
1557590539426,0.19772747475390542,4.9152960777282715,0.2849099934101105,-8.51138687133789,
1557590539494,,4.908113479614258,,,
1557590539495,0.18056350177514724,,0.26336219906806946,-8.528146743774414,
1557590539549,,,,,1007.06640625
1557590539550,0.1715451456544439,4.920084476470947,0.24660277366638184,-8.559270858764648,
1557590539608,,4.898536682128906,0.2753331959247589,,
1557590539609,0.15902081266489107,,,-8.53293514251709,
1557590539669,,4.912901878356934,0.27054479718208313,-8.51138687133789,
1557590539670,0.1208010643452293,,,,
1557590539728,0.11874041016656095,4.886565685272217,0.24899697303771973,-8.508993148803711,1007.06640625
1557590539788,,4.898536682128906,,,
1557590539789,0.12103498478856237,,0.2346317619085312,-8.544905662536621,
1557590539850,,4.953603267669678,,,
1557590539851,0.11865967857389519,,0.24899697303771973,-8.56884765625,
1557590539911,,4.874594688415527,0.2537853717803955,,1007.070556640625
1557590539912,0.08979171303289121,,,-8.453926086425781,
1557590539971,,4.8937482833862305,,,
1557590539972,0.06788448503514584,,0.22505496442317963,-8.489839553833008,
1557590540030,,4.908113479614258,,,
1557590540031,0.12609425303560906,,0.2777273952960968,-8.578424453735352,
1557590540090,0.145927183288951,4.829104900360107,0.28969839215278625,-8.554482460021973,1007.07861328125
1557590540150,,4.991910457611084,0.2561795711517334,,
1557590540151,0.11871996863739577,,,-8.573636054992676,
1557590540211,,4.987122058868408,0.2585737705230713,-8.513781547546387,
1557590540212,0.06997032484869385,,,,
1557590540273,,4.920084476470947,0.2585737705230713,,1007.07080078125
1557590540274,0.05765881085588373,,,-8.520963668823242,
1557590540333,,4.817133903503418,,,
1557590540334,0.13428921733724994,,0.31842881441116333,-8.516175270080566,
1557590540393,,4.833893299102783,,,
1557590540394,0.11440882525271706,,0.2561795711517334,-8.56884765625,
1557590540454,0.04965690115963239,4.886565685272217,0.24660277366638184,-8.525752067565918,1007.064453125
1557590542026,0.04225786988289199,4.946420669555664,0.26096799969673157,-8.506598472595215,
1557590542048,0.07250564897455992,4.903325080871582,0.2944868206977844,-8.53532886505127,
1557590542108,0.06415596647822393,4.920084476470947,0.26336219906806946,-8.544905662536621,
1557590542171,0.05686021446909251,4.917690277099609,0.2513911724090576,-8.540117263793945,1007.083740234375
1557590542231,,4.903325080871582,,,
1557590542232,0.07744746863939563,,0.2777273952960968,-8.556877136230469,
1557590542292,0.0716338377413343,4.917690277099609,0.2777273952960968,-8.552088737487793,
1557590542351,,,,,1007.088134765625
1557590542352,0.06541491099652093,4.908113479614258,0.2537853717803955,-8.552088737487793,
1557590542411,,4.917690277099609,0.2825157940387726,-8.53532886505127,
1557590542412,0.05686131390960676,,,,
1557590542471,,4.9152960777282715,,,
1557590542472,0.044975616609129916,,0.24420857429504395,-8.530540466308594,
1557590542531,,4.934449672698975,0.28730419278144836,,1007.08447265625
1557590542532,0.0677900241815686,,,-8.540117263793945,
1557590542592,,4.924872875213623,,,
1557590542593,0.03630471898355221,,0.24420857429504395,-8.516175270080566,
1557590542653,0.06286307021508421,4.917690277099609,0.3016694188117981,-8.530540466308594,
1557590542714,,,,,1007.0751953125
1557590542715,0.05567174155823943,4.900930881500244,0.272938996553421,-8.542511940002441,
1557590542775,0.044961815679642254,4.900930881500244,0.2825157940387726,-8.528146743774414,
1557590542835,,4.896142482757568,,,
1557590542836,0.040992388217053664,,0.26575639843940735,-8.530540466308594,
1557590542897,,,,,1007.074462890625
1557590542898,0.0662553348620018,4.934449672698975,0.2585737705230713,-8.547300338745117,
1557590542958,,4.934449672698975,,,
1557590542959,0.06829017474446282,,0.26096799969673157,-8.549694061279297,
1557590543018,0.05599088052792031,4.917690277099609,0.2968810200691223,-8.530540466308594,
1557590543078,,,,,1007.080322265625
1557590543079,0.0548424186911756,4.896142482757568,0.2513911724090576,-8.544905662536621,
1557590543139,0.05594882572054403,4.924872875213623,0.28969839215278625,-8.53293514251709,
1557590543199,,4.924872875213623,0.304063618183136,-8.513781547546387,
1557590543200,0.05230614072562869,,,,
1557590543260,,,,,1007.08447265625
1557590543261,0.06127647568185167,4.917690277099609,0.24181437492370605,-8.544905662536621,
1557590543321,,4.917690277099609,0.26336219906806946,-8.537723541259766,
1557590543322,0.05015378971245267,,,,
1557590543381,0.05306833976224936,4.9368438720703125,0.26096799969673157,-8.528146743774414,
1557590543441,,,,,1007.091552734375
1557590543502,,4.9583916664123535,,,
1557590543503,0.06829244879712472,,0.27054479718208313,-8.525752067565918,
1557590543563,,4.90571928024292,0.272938996553421,-8.504204750061035,
1557590543564,0.018014169418363184,,,,
1557590545027,,,,,1007.115966796875
1557590545028,0.040349801238361044,4.927267074584961,0.23942017555236816,-8.513781547546387,
1557590545036,,4.975151062011719,,,
1557590545037,0.09271301510415614,,0.23942017555236816,-8.547300338745117,
1557590545096,0.08406963013257826,4.9152960777282715,0.26096799969673157,-8.56884765625,1007.06396484375
1557590545156,0.10729818158446461,4.807557106018066,0.26815059781074524,-8.508993148803711,
1557590545216,,4.917690277099609,,,
1557590545217,0.08701117319520434,,0.26575639843940735,-8.573636054992676,
1557590545276,,4.941632270812988,0.29209262132644653,,1007.067626953125
1557590545277,0.06475197620050271,,,-8.53532886505127,
1557590545337,,4.910507678985596,0.26575639843940735,-8.518569946289062,
1557590545338,0.03296901938647003,,,,
1557590545397,,4.869806289672852,,,
1557590545398,0.09533123824921612,,0.26815059781074524,-8.573636054992676,
1557590545458,,4.879383087158203,0.24899697303771973,-8.494627952575684,1007.069091796875
1557590545459,0.03917643798386443,,,,
1557590545519,,4.917690277099609,,,
1557590545520,0.07581515721144204,,0.2777273952960968,-8.556877136230469,
1557590545581,0.027696715562842082,4.932055473327637,0.272938996553421,-8.501810073852539,
1557590545640,,4.881777286529541,,,1007.067138671875
1557590545641,0.04535513282246055,,0.2825157940387726,-8.47547435760498,
1557590545700,0.08651004336686333,4.862623691558838,0.304063618183136,-8.544905662536621,
1557590545761,,4.922478675842285,,,
1557590545762,0.05908978624127353,,0.31842881441116333,-8.523358345031738,
1557590545823,,4.922478675842285,,,1007.0703125
1557590545824,0.11070281225226247,,0.20350714027881622,-8.56645393371582,
1557590545884,,4.896142482757568,0.26815059781074524,-8.520963668823242,
1557590545885,0.0416824958332441,,,,
1557590545945,,4.95120906829834,0.3016694188117981,,
1557590545946,0.06707705357777971,,,-8.530540466308594,
1557590552027,0.06544285969021578,4.8602294921875,0.2801215946674347,-8.530540466308594,1007.0869140625
1557590552057,0.10735807691773967,4.831499099731445,0.2537853717803955,-8.564059257507324,
1557590552117,0.024260376959388163,4.903325080871582,0.2561795711517334,-8.506598472595215,
1557590552178,0.08641598532813359,4.8482584953308105,0.33758243918418884,-8.530540466308594,1007.052001953125
1557590552238,0.10736269621249865,4.908113479614258,0.24899697303771973,-8.604761123657227,
1557590552299,0.029580307870201245,4.900930881500244,0.2585737705230713,-8.518569946289062,
1557590552359,,4.932055473327637,0.26336219906806946,,1007.048583984375
1557590552360,0.07215539799538717,,,-8.552088737487793,
1557590552420,,4.886565685272217,0.24899697303771973,-8.56645393371582,
1557590552421,0.07793030619076914,,,,
1557590552480,,4.857835292816162,,,
1557590552481,0.052310636351601124,,0.2944868206977844,-8.537723541259766,
1557590552542,0.04469644175698033,4.853046894073486,0.2825157940387726,-8.53293514251709,1007.047607421875
1557590552603,0.02553732153474339,4.879383087158203,0.2944868206977844,-8.518569946289062,
1557590552665,,4.929661273956299,,,
1557590552666,0.06403074073332995,,0.2825157940387726,-8.542511940002441,
1557590552726,,,,,1007.044677734375
1557590552727,0.046667069960416876,4.910507678985596,0.2944868206977844,-8.53293514251709,
1557590552786,0.03401274613569922,4.865017890930176,0.24660277366638184,-8.504204750061035,
1557590552846,0.09575996851697781,4.9368438720703125,0.26575639843940735,-8.578424453735352,
1557590552908,,,,,1007.049560546875
1557590552909,0.04483553114117153,4.891354084014893,0.31842881441116333,-8.513781547546387,
1557590552970,,4.8722004890441895,,,
1557590552971,0.02413918366072142,,0.2992752194404602,-8.494627952575684,
1557590553032,,4.898536682128906,,,
1557590553033,0.05384282478903642,,0.2346317619085312,-8.530540466308594,
1557590553092,,,,,1007.063232421875
1557590553093,0.04050980900982433,4.884171485900879,0.31364041566848755,-8.51138687133789,
1557590553155,,4.8937482833862305,0.26096799969673157,-8.549694061279297,
1557590553156,0.05206869212632036,,,,
1557590553215,,4.845864295959473,0.21308395266532898,,
1557590553216,0.08462090520675314,,,-8.552088737487793,
1557590553275,,4.922478675842285,0.31842881441116333,,1007.078125
1557590553276,0.08042382425962777,,,-8.552088737487793,
1557590553335,,4.920084476470947,,,
1557590553336,0.08059038325632978,,0.26336219906806946,-8.571242332458496,
1557590553395,,4.819528102874756,,,
1557590553396,0.058624565445452526,,0.27054479718208313,-8.53293514251709,
1557590553459,,,,,1007.080810546875
1557590553460,0.03492348825645505,4.879383087158203,0.26815059781074524,-8.542511940002441,
1557590558024,,4.960785865783691,,,
1557590558025,0.10467683663078015,,0.24420857429504395,-8.554482460021973,
1557590558062,,4.8937482833862305,,,
1557590558063,0.04421738010818685,,0.2777273952960968,-8.540117263793945,
1557590558116,0.04617005998171305,4.867412090301514,0.2801215946674347,-8.537723541259766,1007.069580078125
1557590558177,0.05104045782352634,4.867412090301514,0.2801215946674347,-8.544905662536621,
1557590558241,0.07958613720553596,4.853046894073486,0.26096799969673157,-8.573636054992676,
1557590558298,,4.855441093444824,0.2825157940387726,,1007.078857421875
1557590558299,0.057250037114420775,,,-8.552088737487793,
1557590558358,0.06301122809279308,4.841075897216797,0.2992752194404602,-8.547300338745117,
1557590558419,0.09831731210464316,4.867412090301514,0.2537853717803955,-8.607154846191406,
1557590558478,0.054805517577820484,4.898536682128906,0.2825157940387726,-8.552088737487793,1007.08154296875
1557590558539,0.06527034729948503,4.874594688415527,0.33997663855552673,-8.504204750061035,
1557590558600,0.07924028583066192,4.874594688415527,0.28730419278144836,-8.585607528686523,
1557590558661,0.09475887376743103,4.7836151123046875,0.31124621629714966,-8.53532886505127,1007.0751953125
1557590558721,0.045647689524804295,4.869806289672852,0.304063618183136,-8.547300338745117,
1557590558781,0.05832550117409284,4.891354084014893,0.304063618183136,-8.556877136230469,
1557590558842,,4.876988887786865,,,1007.063232421875
1557590558843,0.037628439896904384,,0.26336219906806946,-8.540117263793945,
1557590558905,0.03806210805555296,4.8722004890441895,0.2992752194404602,-8.542511940002441,
1557590558965,0.05269421929440711,4.8482584953308105,0.28730419278144836,-8.559270858764648,
1557590645025,,4.862623691558838,0.2753331959247589,,1007.06201171875
1557590645026,0.02149309650499614,,,-8.530540466308594,
1557590645040,,5.0014872550964355,,,
1557590645041,0.12724876459558124,,0.272938996553421,-8.501810073852539,
1557590645099,0.11958193732763794,4.972756862640381,0.3495534360408783,-8.449137687683105,
1557590645158,0.18816764498692262,5.073313236236572,0.33279404044151306,-8.497021675109863,1007.073974609375
1557590645217,0.10203683566216333,4.994304656982422,0.3208230137825012,-8.458714485168457,
1557590645278,0.08155362978930052,4.9583916664123535,0.33518823981285095,-8.437167167663574,
1557590645340,,,,,1007.070068359375
1557590645341,0.14113024837298443,5.051765441894531,0.2944868206977844,-8.506598472595215,
1557590645399,0.11806035811186251,5.0254292488098145,0.3495534360408783,-8.456320762634277,
1557590645461,,4.991910457611084,0.2968810200691223,,
1557590645462,0.06776838970899479,,,-8.485051155090332,
1557590645522,0.08506655978752883,5.011064052581787,0.304063618183136,-8.446743965148926,1007.055419921875
1557590645582,,5.003881454467773,,,
1557590645583,0.0698319144109551,,0.3016694188117981,-8.47786808013916,
1557590645641,0.06913862562252106,5.003881454467773,0.31842881441116333,-8.468291282653809,
1557590645705,0.11915412810677573,5.044582843780518,0.35673606395721436,-8.47547435760498,1007.05126953125
1557590645761,0.022260280122373136,4.967968463897705,0.2944868206977844,-8.463502883911133,
1557590645822,0.09292365511171678,5.039794445037842,0.27054479718208313,-8.465897560119629,
1557590645882,,4.991910457611084,0.3064578175544739,-8.497021675109863,1007.05517578125
1557590645883,0.055573389589990106,,,,
1557590645942,0.031559626562384334,4.9799394607543945,0.31603461503982544,-8.44434928894043,
1557590646003,0.2499671109738691,4.766855716705322,0.45489832758903503,-8.540117263793945,
1557590646063,0.19478001487446822,5.147533416748047,0.3016694188117981,-8.51138687133789,1007.048828125
1557590646122,1.354470624800204,3.847482204437256,-0.7637503147125244,-8.489839553833008,
1557590646183,1.3676318945034955,5.9088897705078125,1.1276689767837524,-8.38449478149414,
1557590646242,,6.112396717071533,1.2258312702178955,,1007.057373046875
1557590646243,1.2849340275702192,,,-8.429984092712402,
1557590646303,,4.853046894073486,0.24420857429504395,,
1557590646304,0.4627910136632118,,,-8.71728801727295,
1557590646363,,4.99669885635376,,,
1557590646364,0.19798231709154146,,0.304063618183136,-8.485051155090332,
1557590646424,0.17825805103570092,5.023035049438477,0.28969839215278625,-8.470685958862305,1007.064697265625
1557590646484,0.20082588441839924,4.970362663269043,0.2537853717803955,-8.456320762634277,
1557590646544,0.550447078541361,5.403713226318359,0.009576806798577309,-8.621520042419434,
1557590646604,0.1207278823461946,4.99669885635376,0.47405192255973816,-8.38449478149414,1007.071044921875
1557590646664,1.260084859927112,3.9863457679748535,-0.6392518281936646,-8.585607528686523,
1557590646723,,3.5051112174987793,-0.7589619159698486,,
1557590646724,1.2976429515435097,,,-8.47547435760498,
1557590646785,0.3979226694436527,4.965574264526367,0.0071826050989329815,-8.755595207214355,1007.077880859375
1557590653026,,4.9799394607543945,,,
1557590653027,0.5081626858407791,5.003881454467773,0.35913026332855225,-8.53532886505127,
1557590653058,,5.03021764755249,,,
1557590653059,0.4388537409530061,,0.2968810200691223,-8.453926086425781,
1557590653112,0.29604758856476937,4.975151062011719,0.2298433631658554,-8.487444877624512,
1557590653172,0.3884149593647758,5.035006046295166,0.3734954595565796,-8.456320762634277,1007.1015625
1557590653234,,5.109226226806641,,,
1557590653235,0.3664135385207277,,0.30885201692581177,-8.415618896484375,
1557590653295,,4.967968463897705,0.2585737705230713,,
1557590653296,0.15969748034708026,,,-8.506598472595215,
1557590653358,,4.991910457611084,0.2801215946674347,-8.42040729522705,1007.093017578125
1557590653359,0.18477843927703366,,,,
1557590653417,,5.035006046295166,0.35434186458587646,-8.516175270080566,
1557590653418,0.22369642893718733,,,,
1557590653479,0.15508346212124827,5.0014872550964355,0.304063618183136,-8.413225173950195,
1557590653539,,,,,1007.086181640625
1557590653540,0.13008179158264022,5.018246650695801,0.2753331959247589,-8.53293514251709,
1557590653602,,4.93923807144165,,,
1557590653603,0.14737424765419893,,0.33279404044151306,-8.38449478149414,
1557590653664,0.12123306781729279,5.020640850067139,0.22505496442317963,-8.53293514251709,
1557590653724,0.19158818881678283,4.836287498474121,0.4118026793003082,-8.480262756347656,1007.07861328125
1557590653784,,4.9799394607543945,0.3064578175544739,-8.480262756347656,
1557590653785,0.0996357705167651,,,,
1557590653846,0.10894784793796275,5.018246650695801,0.2082955539226532,-8.489839553833008,
1557590653906,,5.037400245666504,,,1007.0927734375
1557590653907,0.12153138787341959,,0.22505496442317963,-8.470685958862305,
1557590653967,0.12510456241838347,5.018246650695801,0.3016694188117981,-8.489839553833008,
1557590654027,0.05286903980142215,4.9152960777282715,0.26815059781074524,-8.520963668823242,
1557590654087,,,,,1007.09130859375
1557590654088,0.06901796392640683,4.888959884643555,0.29209262132644653,-8.516175270080566,
1557590654148,0.04221202586673825,4.941632270812988,0.2585737705230713,-8.47786808013916,
1557590654208,,4.963180065155029,,,
1557590654209,0.11006090826868892,,0.3280056416988373,-8.439560890197754,
1557590654268,,5.023035049438477,0.2777273952960968,,1007.0751953125
1557590654269,0.10936042995137531,,,-8.492233276367188,
1557590656029,0.030986150725440257,4.944026470184326,0.2585737705230713,-8.49941635131836,1007.07861328125
1557590656054,,4.929661273956299,0.28730419278144836,,
1557590656055,0.06246697775362499,,,-8.528146743774414,
1557590656108,0.05772584634396797,4.946420669555664,0.2753331959247589,-8.525752067565918,1007.065673828125
1557590656168,,4.963180065155029,,,
1557590656169,0.07278180387567916,,0.31364041566848755,-8.501810073852539,
1557590656229,,4.922478675842285,,,
1557590656230,0.03836990826082317,,0.24899697303771973,-8.513781547546387,
1557590656298,0.04608426875458973,4.95120906829834,0.28730419278144836,-8.501810073852539,1007.072021484375
1557590656349,0.03764071414132527,4.934449672698975,0.27054479718208313,-8.51138687133789,
1557590656410,0.07238009125009541,4.920084476470947,0.31124621629714966,-8.530540466308594,
1557590656469,0.04858981629453746,4.917690277099609,0.27054479718208313,-8.525752067565918,1007.07275390625
1557590656529,0.07969791587374545,4.977545261383057,0.2801215946674347,-8.53293514251709,
1557590656589,,4.963180065155029,,,
1557590656590,0.06002944533585869,,0.3016694188117981,-8.504204750061035,
1557590656650,,4.934449672698975,,,1007.070068359375
1557590656651,0.021198882622256793,,0.2801215946674347,-8.489839553833008,
1557590656710,0.07017231251302677,4.912901878356934,0.26575639843940735,-8.547300338745117,
1557590656770,,4.93923807144165,,,
1557590656771,0.04561608801475623,,0.2944868206977844,-8.51138687133789,
1557590656831,0.056224138553490156,4.967968463897705,0.3016694188117981,-8.487444877624512,1007.073486328125
1557590656891,0.04098555052653365,4.960785865783691,0.2777273952960968,-8.492233276367188,
1557590656952,0.0601323651605287,4.955997467041016,0.2849099934101105,-8.525752067565918,
1557590657012,0.07904300759448621,4.896142482757568,0.2992752194404602,-8.547300338745117,1007.064697265625
1557590657244,,4.929661273956299,,,
1557590657245,0.03504412539795815,4.982333660125732,0.2801215946674347,-8.51138687133789,
1557590657276,0.0584623811212966,4.900930881500244,0.304063618183136,-8.525752067565918,
1557590657335,0.050126550384098606,4.927267074584961,0.2825157940387726,-8.528146743774414,1007.060546875
1557590657396,,4.9368438720703125,0.27054479718208313,-8.49941635131836,
1557590657397,0.027610575371377784,,,,
1557590657457,0.03602748417012655,4.953603267669678,0.28730419278144836,-8.487444877624512,
1557590657516,,,,,1007.059326171875
1557590657517,0.05747479081505216,4.903325080871582,0.304063618183136,-8.528146743774414,
1557590657576,,4.886565685272217,,,
1557590657577,0.06611714823695868,,0.31842881441116333,-8.525752067565918,
1557590657637,0.046235732249107674,4.917690277099609,0.3064578175544739,-8.520963668823242,
1557590657696,,,,,1007.06787109375
1557590657697,0.04743986721691265,4.903325080871582,0.29209262132644653,-8.528146743774414,
1557590657758,0.050220833591393635,4.9152960777282715,0.3016694188117981,-8.530540466308594,
1557590657817,0.05573460642983416,4.927267074584961,0.2992752194404602,-8.53532886505127,
1557590657877,0.04774350499654439,4.922478675842285,0.3208230137825012,-8.516175270080566,1007.0859375
1557590657939,0.02174178331862477,4.896142482757568,0.3016694188117981,-8.497021675109863,
1557590658000,,4.9152960777282715,,,
1557590658001,0.05059886237027552,,0.28969839215278625,-8.53532886505127,
1557590658065,0.051286760341723824,4.93923807144165,0.28730419278144836,-8.525752067565918,1007.0830078125
1557590658122,0.05776263725405411,4.927267074584961,0.3208230137825012,-8.530540466308594,
1557590658185,,4.898536682128906,,,
1557590658186,0.052818720968920305,,0.23702596127986908,-8.482656478881836,
1557590658437,0.09398157110019217,4.972756862640381,0.33039984107017517,-8.540117263793945,1007.086669921875
1557590658468,0.060239115449944806,4.934449672698975,0.2753331959247589,-8.537723541259766,
1557590658528,0.06205464927089128,4.920084476470947,0.2801215946674347,-8.542511940002441,
1557590658588,,,,,1007.095947265625
1557590658589,0.03639640703953049,4.944026470184326,0.28969839215278625,-8.501810073852539,
1557590658648,,4.9368438720703125,,,
1557590658649,0.028102868283248907,,0.27054479718208313,-8.497021675109863,
1557590658710,,4.9368438720703125,,,
1557590658711,0.04822506426967117,,0.3016694188117981,-8.518569946289062,
1557590658770,,4.934449672698975,0.26575639843940735,,1007.09716796875
1557590658771,0.06363107509126258,,,-8.540117263793945,
1557590658833,,4.924872875213623,0.31364041566848755,,
1557590658834,0.05408461155423931,,,-8.523358345031738,
1557590658893,,4.944026470184326,0.29209262132644653,-8.525752067565918,
1557590658894,0.054006739519652375,,,,
1557590658953,,4.93923807144165,0.29209262132644653,,1007.090087890625
1557590658954,0.05990754687619824,,,-8.53532886505127,
1557590659013,,4.944026470184326,,,
1557590659014,0.03864207365763794,,0.2849099934101105,-8.506598472595215,
1557590659073,,4.908113479614258,0.30885201692581177,-8.506598472595215,
1557590659074,0.035964982004853895,,,,
1557590659133,,4.944026470184326,0.26815059781074524,,1007.080322265625
1557590659134,0.04806378559314164,,,-8.516175270080566,
1557590659193,,4.955997467041016,,,
1557590659194,0.05954336510556188,,0.29209262132644653,-8.523358345031738,
1557590659254,0.04971889979947131,4.910507678985596,0.31842881441116333,-8.518569946289062,
1557590659315,0.04076802073402776,4.920084476470947,0.2968810200691223,-8.520963668823242,1007.069580078125
1557590659376,0.04377220550344113,4.934449672698975,0.26815059781074524,-8.516175270080566,
1557590659625,,4.934449672698975,,,1007.07275390625
1557590659627,0.060157814098435514,4.9368438720703125,0.31124621629714966,-8.53293514251709,
1557590659671,0.0781799927519977,4.932055473327637,0.31842881441116333,-8.552088737487793,1007.074462890625
1557590659731,0.06154018507182141,4.953603267669678,0.2849099934101105,-8.528146743774414,
1557590659793,,4.927267074584961,,,
1557590659794,0.03392251196609828,,0.26575639843940735,-8.504204750061035,
1557590659854,,4.93923807144165,0.2585737705230713,,1007.064208984375
1557590659855,0.04638197523257387,,,-8.508993148803711,
1557590659915,,4.941632270812988,,,
1557590659916,0.03304611451207338,,0.272938996553421,-8.494627952575684,
1557590659976,,4.920084476470947,,,
1557590659977,0.035909186228640304,,0.24899697303771973,-8.492233276367188,
1557590660039,0.0385805046416397,4.941632270812988,0.2825157940387726,-8.508993148803711,1007.0712890625
1557590660097,0.038818032485257316,4.932055473327637,0.2849099934101105,-8.516175270080566,
1557590660158,0.04001587975814528,4.944026470184326,0.29209262132644653,-8.506598472595215,
1557590660217,,,,,1007.0703125
1557590660218,0.04879112033535749,4.929661273956299,0.31124621629714966,-8.518569946289062,
1557590660279,0.03200352496692121,4.924872875213623,0.28969839215278625,-8.51138687133789,
1557590660340,0.02420494042544142,4.932055473327637,0.28969839215278625,-8.497021675109863,
1557590660399,,,,,1007.07666015625
1557590660400,0.05066723587138994,4.948814868927002,0.2801215946674347,-8.518569946289062,
1557590660460,,4.9152960777282715,,,
1557590660461,0.036285843136639295,,0.30885201692581177,-8.508993148803711,
1557590660522,0.02116829099267325,4.924872875213623,0.2801215946674347,-8.49941635131836,
1557590660580,,,,,1007.08251953125
1557590660581,0.06629872733240674,4.9583916664123535,0.29209262132644653,-8.530540466308594,
1557590660805,0.07911577803421453,4.927267074584961,0.272938996553421,-8.559270858764648,
1557590660806,0.08232657314929553,,,,
1557590660814,,4.927267074584961,,,
1557590660815,0.041605478704618046,,0.31364041566848755,-8.51138687133789,
1557590660875,0.060494656117564244,4.927267074584961,0.26575639843940735,-8.537723541259766,
1557590660934,0.06274108656638265,4.960785865783691,0.31364041566848755,-8.513781547546387,1007.079345703125
1557590660995,,4.869806289672852,0.23942017555236816,-8.578424453735352,
1557590660996,0.11300884989378675,,,,
1557590661056,,4.960785865783691,,,
1557590661057,0.0681420003607421,,0.29209262132644653,-8.523358345031738,
1557590661116,0.04599370859121316,4.891354084014893,0.28730419278144836,-8.537723541259766,1007.08203125
1557590661176,,4.824316501617432,,,
1557590661177,0.09072777432889097,,0.3016694188117981,-8.544905662536621,
1557590661238,,4.8602294921875,,,
1557590661239,0.05940643814645077,,0.31603461503982544,-8.513781547546387,
1557590661300,,5.011064052581787,0.28730419278144836,,1007.08251953125
1557590661301,0.11303268077900303,,,-8.427590370178223,
1557590661360,,5.023035049438477,,,
1557590661361,0.11581272531395871,,0.26096799969673157,-8.525752067565918,
1557590661420,,4.888959884643555,,,
1557590661421,0.0528807286959202,,0.31124621629714966,-8.506598472595215,
1557590661480,,,,,1007.088623046875
1557590661481,0.10475202589505672,4.817133903503418,0.31124621629714966,-8.53293514251709,
1557590661541,,4.879383087158203,0.30885201692581177,-8.51138687133789,
1557590661542,0.04587374946467762,,,,
1557590661602,,4.944026470184326,,,
1557590661603,0.054780459585161714,,0.2944868206977844,-8.516175270080566,
1557590661663,,4.853046894073486,0.2298433631658554,,1007.08642578125
1557590661664,0.10092299200616014,,,-8.571242332458496,
1557590661723,,4.888959884643555,0.31842881441116333,-8.470685958862305,
1557590661724,0.053657969453073946,,,,
1557590661783,0.12609924582141277,5.035006046295166,0.29209262132644653,-8.506598472595215,
1557590662027,0.05165954474103457,4.941632270812988,0.2753331959247589,-8.525752067565918,1007.092529296875
1557590662041,0.07506252615516867,4.888959884643555,0.2513911724090576,-8.549694061279297,1007.08935546875
1557590662102,0.06894242413011634,4.9799394607543945,0.2777273952960968,-8.508993148803711,
1557590662161,0.07027536312177053,4.963180065155029,0.3016694188117981,-8.518569946289062,
1557590662221,,4.876988887786865,0.24181437492370605,-8.47547435760498,1007.098876953125
1557590662222,0.04712426696325479,,,,
1557590662281,0.11962563646480052,4.845864295959473,0.33279404044151306,-8.554482460021973,
1557590662342,,4.922478675842285,,,
1557590662343,0.06680660664903691,,0.2585737705230713,-8.552088737487793,
1557590662402,0.05514445301635926,4.9152960777282715,0.2513911724090576,-8.540117263793945,1007.10205078125
1557590662462,,4.970362663269043,0.2849099934101105,-8.482656478881836,
1557590662463,0.05858514245706151,,,,
1557590662522,0.08917828487340872,4.941632270812988,0.24181437492370605,-8.564059257507324,
1557590662583,,4.8722004890441895,,,1007.099609375
1557590662584,0.0686389180128984,,0.2992752194404602,-8.525752067565918,
1557590662644,,4.896142482757568,,,
1557590662645,0.031426284568482996,,0.2825157940387726,-8.504204750061035,
1557590662704,,4.927267074584961,,,
1557590662705,0.07663142522372306,,0.2585737705230713,-8.559270858764648,
1557590662765,,,,,1007.088134765625
1557590662766,0.05724747693848346,4.932055473327637,0.28730419278144836,-8.53293514251709,
1557590662826,0.05581857334868661,4.924872875213623,0.2992752194404602,-8.528146743774414,
1557590662886,,4.8937482833862305,0.3064578175544739,-8.508993148803711,
1557590662887,0.04555624106130749,,,,
1557590662947,0.061230383497236605,4.884171485900879,0.26575639843940735,-8.544905662536621,1007.08544921875
1557590663017,0.059521907542025486,4.874594688415527,0.31603461503982544,-8.518569946289062,
1557590663246,0.04924765128105958,4.948814868927002,0.2561795711517334,-8.492233276367188,1007.089599609375
1557590663301,0.10374645821000926,4.831499099731445,0.28969839215278625,-8.56645393371582,1007.08837890625
1557590663359,0.08108304286108314,4.982333660125732,0.2968810200691223,-8.485051155090332,
1557590663420,0.10269851094833725,4.967968463897705,0.33279404044151306,-8.547300338745117,
1557590663482,,,,,1007.08447265625
1557590663483,0.07034259390548253,4.891354084014893,0.24899697303771973,-8.552088737487793,
1557590663544,0.06877920792852975,4.838681697845459,0.26096799969673157,-8.489839553833008,
1557590663604,,4.917690277099609,,,
1557590663605,0.08282804658098436,,0.31842881441116333,-8.559270858764648,
1557590663665,,4.920084476470947,0.2753331959247589,,1007.078369140625
1557590663666,0.09530685087566543,,,-8.583212852478027,
1557590663725,0.06949898193384722,4.865017890930176,0.272938996553421,-8.552088737487793,
1557590663787,0.02668550961718066,4.924872875213623,0.2777273952960968,-8.492233276367188,
1557590663845,,,,,1007.072509765625
1557590663846,0.10328268436815154,,,-8.554482460021973,
1557590663908,0.08688017098642677,4.908113479614258,0.24899697303771973,-8.573636054992676,
1557590663969,0.032890533078466164,4.869806289672852,0.2585737705230713,-8.501810073852539,
1557590664030,,4.891354084014893,0.3064578175544739,-8.537723541259766,1007.081787109375
1557590664031,0.055678524681742565,,,,
1557590664091,,4.879383087158203,0.2992752194404602,-8.513781547546387,
1557590664092,0.034701658387412154,,,,
1557590664152,0.08839286778224259,4.932055473327637,0.24181437492370605,-8.56645393371582,
1557590664211,0.04728682481972326,4.888959884643555,0.3232172429561615,-8.497021675109863,1007.084228515625
1557590664388,0.08674861398030774,4.924872875213623,0.29209262132644653,-8.573636054992676,
1557590664395,,,,,1007.073486328125
1557590664396,0.08585987595090085,4.910507678985596,0.2537853717803955,-8.576030731201172,
1557590664454,0.05434401604637735,4.853046894073486,0.31124621629714966,-8.494627952575684,
1557590664516,0.04110653769852224,4.908113479614258,0.28730419278144836,-8.530540466308594,
1557590664577,,,,,1007.080322265625
1557590664578,0.05726990864593403,4.922478675842285,0.2849099934101105,-8.542511940002441,
1557590664637,0.07198900039788075,4.95120906829834,0.28969839215278625,-8.537723541259766,
1557590664698,0.07009999627634214,4.903325080871582,0.304063618183136,-8.556877136230469,
1557590664757,,,,,1007.08349609375
1557590664758,0.023353015851799178,4.881777286529541,0.2849099934101105,-8.47547435760498,
1557590664817,,4.910507678985596,,,
1557590664818,0.06241744892890585,,0.28969839215278625,-8.552088737487793,
1557590664878,0.0561631088718445,4.908113479614258,0.2753331959247589,-8.547300338745117,
1557590664940,0.04713555776371219,4.910507678985596,0.304063618183136,-8.530540466308594,1007.088623046875
1557590664999,,4.900930881500244,0.2944868206977844,-8.53293514251709,
1557590665000,0.04232676146332811,,,,
1557590665060,0.05012296442645601,4.9152960777282715,0.26336219906806946,-8.53532886505127,
1557590665119,,4.8937482833862305,0.26815059781074524,,1007.092041015625
1557590665120,0.043220676916768605,,,-8.53532886505127,
1557590665181,,4.910507678985596,,,
1557590665182,0.042422854333624,,0.30885201692581177,-8.520963668823242,
1557590665240,0.06505522398293972,4.922478675842285,0.2801215946674347,-8.552088737487793,
1557590665300,,,,,1007.083740234375
1557590665301,0.023897435222379783,4.869806289672852,0.2849099934101105,-8.501810073852539,
1557590665360,,4.929661273956299,,,
1557590665361,0.06040923948853425,,0.26815059781074524,-8.540117263793945,
1557590665422,0.051521058931462874,4.941632270812988,0.2849099934101105,-8.51138687133789,
1557590665481,,4.93923807144165,0.2849099934101105,,1007.07373046875
1557590665482,0.058403700333057286,,,-8.530540466308594,
1557590665541,,4.874594688415527,,,
1557590665542,0.029552504772242045,,0.2585737705230713,-8.492233276367188,
1557590665602,0.05793768636857153,4.90571928024292,0.26096799969673157,-8.547300338745117,
1557590665661,,4.972756862640381,0.28969839215278625,,1007.0732421875
1557590665662,0.07760262190424866,,,-8.492233276367188,
1557590665721,,4.9152960777282715,,,
1557590665722,0.058139546603223125,,0.2777273952960968,-8.547300338745117,
1557590665781,,4.920084476470947,0.2849099934101105,,
1557590665782,0.047455935450095105,,,-8.53293514251709,
1557590665842,0.05461875605400913,4.927267074584961,0.29209262132644653,-8.53532886505127,1007.07470703125
1557590665902,,4.93923807144165,,,
1557590665903,0.04952399310492231,,0.2992752194404602,-8.508993148803711,
1557590665963,0.04211200348722224,4.917690277099609,0.26096799969673157,-8.523358345031738,
1557590666022,0.02983963198049211,4.881777286529541,0.304063618183136,-8.501810073852539,1007.07080078125
1557590666083,,4.929661273956299,,,
1557590666084,0.05370319917594353,,0.2992752194404602,-8.530540466308594,
1557590666144,0.05957107856132847,4.9368438720703125,0.272938996553421,-8.53532886505127,
1557590666203,0.044574511473983836,4.924872875213623,0.26575639843940735,-8.523358345031738,1007.07275390625
1557590666262,0.01972820102855106,4.888959884643555,0.27054479718208313,-8.506598472595215,
1557590666323,,4.912901878356934,0.2825157940387726,-8.576030731201172,
1557590666324,0.08549969953141202,,,,
1557590666383,,4.953603267669678,,,1007.074951171875
1557590666384,0.06018291763202691,,0.2561795711517334,-8.49941635131836,
1557590666443,,4.972756862640381,0.28730419278144836,,
1557590666444,0.07282959438082401,,,-8.49941635131836,
1557590666504,0.10672158951004732,4.95120906829834,0.21547815203666687,-8.561665534973145,
1557590666563,0.05201676207102006,4.862623691558838,0.27054479718208313,-8.520963668823242,1007.081298828125
1557590666622,,4.93923807144165,0.30885201692581177,,
1557590666623,0.05682225537869574,,,-8.516175270080566,
1557590666684,0.03659609259095679,4.922478675842285,0.2968810200691223,-8.51138687133789,
1557590666743,,,,,1007.08349609375
1557590666744,0.056987107598280407,4.927267074584961,0.29209262132644653,-8.537723541259766,
1557590666804,,4.927267074584961,,,
1557590666805,0.027628204547266833,,0.2753331959247589,-8.501810073852539,
1557590666866,0.06187306319201348,4.953603267669678,0.2944868206977844,-8.520963668823242,
1557590666926,0.039255330851864195,4.922478675842285,0.2513911724090576,-8.51138687133789,1007.083740234375
1557590666985,,4.932055473327637,,,
1557590666986,0.05606211794143061,,0.28730419278144836,-8.53532886505127,
1557590667046,0.028940901172389333,4.891354084014893,0.26575639843940735,-8.51138687133789,
1557590667106,,4.932055473327637,,,1007.08837890625
1557590667107,0.05777364839769395,,0.31364041566848755,-8.523358345031738,
1557590667166,,4.9583916664123535,,,
1557590667167,0.053589379866456906,,0.2849099934101105,-8.492233276367188,
1557590667227,0.0435552277873617,4.891354084014893,0.2849099934101105,-8.528146743774414,
1557590667286,,,,,1007.088623046875
1557590667287,0.0448460924470499,4.908113479614258,0.29209262132644653,-8.530540466308594,
1557590667347,,4.963180065155029,,,
1557590667348,0.0683124517430155,,0.3016694188117981,-8.516175270080566,
1557590667408,0.04690187647330918,4.941632270812988,0.24899697303771973,-8.482656478881836,
1557590667468,,,,,1007.08740234375
1557590667469,0.05389590276358359,4.855441093444824,0.26575639843940735,-8.501810073852539,
1557590667528,0.07399750031175184,4.912901878356934,0.26096799969673157,-8.559270858764648,
1557590667589,0.07669182141648781,4.932055473327637,0.272938996553421,-8.559270858764648,
1557590667650,0.05831212072463746,4.924872875213623,0.2801215946674347,-8.542511940002441,1007.0927734375
1557590667709,,4.93923807144165,0.2849099934101105,,
1557590667710,0.04381043876694813,,,-8.51138687133789,
1557590667770,0.06621720951047282,4.903325080871582,0.24420857429504395,-8.547300338745117,
1557590667830,0.04380790500507629,4.927267074584961,0.29209262132644653,-8.520963668823242,1007.1064453125
1557590667889,,4.9152960777282715,,,
1557590667890,0.05732299163258779,,0.2801215946674347,-8.544905662536621,
1557590667950,0.025929208666881965,4.876988887786865,0.28730419278144836,-8.492233276367188,
1557590668010,0.0894757748126744,4.896142482757568,0.2561795711517334,-8.578424453735352,1007.111328125
1557590668071,,4.941632270812988,,,
1557590668072,0.05622671012731828,,0.3016694188117981,-8.516175270080566,
1557590668133,,4.910507678985596,,,
1557590668134,0.042097061903528514,,0.30885201692581177,-8.516175270080566,
1557590668193,,4.955997467041016,0.2801215946674347,,1007.114013671875
1557590668194,0.07233765916848853,,,-8.53532886505127,
1557590668253,,4.888959884643555,,,
1557590668254,0.03568230384693885,,0.28969839215278625,-8.523358345031738,
1557590668314,0.04427478517864449,4.922478675842285,0.31124621629714966,-8.51138687133789,
1557590668374,,4.987122058868408,,,1007.1171875
1557590668375,0.09458985738460766,,0.2777273952960968,-8.528146743774414,
1557590668434,,4.910507678985596,,,
1557590668435,0.030683214818434567,,0.2992752194404602,-8.51138687133789,
1557590668496,0.08554963342582794,4.884171485900879,0.23942017555236816,-8.564059257507324,
1557590668557,,,,,1007.11669921875
1557590668558,0.03984638116600991,4.891354084014893,0.3016694188117981,-8.523358345031738,
1557590668615,,4.9368438720703125,,,
1557590668616,0.04940597501921934,,0.2944868206977844,-8.518569946289062,
1557590668676,,4.917690277099609,0.29209262132644653,,
1557590668677,0.06954871022741152,,,-8.556877136230469,
1557590668737,,,,,1007.119873046875
1557590668738,0.054895151522840156,4.922478675842285,0.2753331959247589,-8.540117263793945,
1557590668797,,4.879383087158203,,,
1557590668798,0.02693373264964348,,0.2849099934101105,-8.51138687133789,
1557590668857,,4.898536682128906,,,
1557590668858,0.0630396552129517,,0.3232172429561615,-8.540117263793945,
1557590668917,,,,,1007.10791015625
1557590668918,0.07254819140820469,4.9368438720703125,0.28730419278144836,-8.552088737487793,
1557590668979,,4.927267074584961,0.28730419278144836,-8.492233276367188,
1557590668980,0.03112286451679497,,,,
1557590669040,0.03787112791306763,4.917690277099609,0.2849099934101105,-8.523358345031738,
1557590669100,,4.929661273956299,0.29209262132644653,-8.544905662536621,1007.093994140625
1557590669101,0.06303004425429395,,,,
1557590669160,,4.934449672698975,,,
1557590669161,0.0669367023833666,,0.3064578175544739,-8.542511940002441,
1557590669220,,4.90571928024292,0.2968810200691223,,
1557590669222,0.019819893917227997,,,-8.504204750061035,
1557590669280,,4.869806289672852,0.26336219906806946,-8.501810073852539,1007.09765625
1557590669281,0.03765967288971756,,,,
1557590669340,,4.965574264526367,,,
1557590669341,0.07617833648076724,,0.2753331959247589,-8.528146743774414,
1557590669404,0.041537226597089645,4.944026470184326,0.2849099934101105,-8.470685958862305,
1557590669463,,,,,1007.0966796875
1557590669464,0.043499055645101356,4.886565685272217,0.26575639843940735,-8.523358345031738,
1557590669524,,4.920084476470947,0.28969839215278625,-8.552088737487793,
1557590669525,0.06904710463204908,,,,
1557590669585,,4.922478675842285,0.28730419278144836,-8.513781547546387,
1557590669586,0.03439518399623769,,,,
1557590669646,,4.953603267669678,0.26336219906806946,-8.49941635131836,1007.085205078125
1557590669647,0.04931878329676431,,,,
1557590669706,0.04075070668354461,4.912901878356934,0.26575639843940735,-8.525752067565918,
1557590669766,,4.922478675842285,,,
1557590669767,0.05952519326237227,,0.3208230137825012,-8.520963668823242,
1557590669826,,4.920084476470947,0.26815059781074524,-8.516175270080566,1007.088134765625
1557590669827,0.03339583556876152,,,,
1557590669887,0.05704165789923927,4.90571928024292,0.3016694188117981,-8.537723541259766,
1557590669948,,4.929661273956299,0.26815059781074524,-8.497021675109863,
1557590669949,0.02693046696385324,,,,
1557590670008,,,,,1007.08203125
1557590670009,0.017592022289785656,4.922478675842285,0.27054479718208313,-8.489839553833008,
1557590670070,0.04072037365688759,4.917690277099609,0.2753331959247589,-8.525752067565918,
1557590670130,0.05994258119693832,4.910507678985596,0.30885201692581177,-8.537723541259766,
1557590670190,,4.898536682128906,0.2849099934101105,-8.508993148803711,1007.085693359375
1557590670191,0.023336181592734255,,,,
1557590670250,,4.903325080871582,0.31364041566848755,,
1557590670251,0.05082443583427956,,,-8.525752067565918,
1557590670310,,4.941632270812988,,,
1557590670311,0.054403179036017796,,0.28969839215278625,-8.525752067565918,
1557590670373,,,,,1007.086181640625
1557590670374,0.040727593159270936,4.917690277099609,0.28730419278144836,-8.525752067565918,
1557590670432,,4.932055473327637,,,
1557590670433,0.07554563438477768,,0.304063618183136,-8.554482460021973,
1557590670494,0.030225461969382986,4.910507678985596,0.29209262132644653,-8.516175270080566,
1557590670554,0.055576636440310814,4.9368438720703125,0.27054479718208313,-8.530540466308594,1007.082275390625
1557590670613,,4.908113479614258,0.3064578175544739,-8.542511940002441,
1557590670614,0.058661632158050724,,,,
1557590670675,,4.924872875213623,0.2968810200691223,,
1557590670676,0.03787159976699864,,,-8.516175270080566,
1557590670735,,4.900930881500244,0.28730419278144836,-8.537723541259766,1007.093017578125
1557590670736,0.04843018980391897,,,,
1557590670796,,4.927267074584961,,,
1557590670797,0.05598698192289878,,0.26575639843940735,-8.53532886505127,
1557590670858,0.023372687191417853,4.888959884643555,0.2992752194404602,-8.504204750061035,
1557590670917,,4.932055473327637,0.33279404044151306,-8.528146743774414,1007.09716796875
1557590670918,0.06827375977044305,,,,
1557590670979,0.038152494412375934,4.912901878356934,0.28969839215278625,-8.525752067565918,
1557590671039,,4.920084476470947,,,
1557590671040,0.0530885419669841,,0.2992752194404602,-8.537723541259766,
1557590671100,0.03841012444577762,4.929661273956299,0.28969839215278625,-8.513781547546387,1007.095703125
1557590671161,,4.929661273956299,0.26336219906806946,-8.537723541259766,
1557590671162,0.06108569532356893,,,,
1557590671223,,4.9152960777282715,,,
1557590671224,0.057852543192142586,,0.2968810200691223,-8.544905662536621,
1557590671282,,4.908113479614258,0.2849099934101105,-8.540117263793945,1007.1025390625
1557590671283,0.05051588681713919,,,,
1557590671344,0.044282762004960396,4.910507678985596,0.2801215946674347,-8.53293514251709,
1557590671403,,4.924872875213623,0.2968810200691223,-8.518569946289062,
1557590671404,0.03973084246199294,,,,
1557590671464,0.04655470796486369,4.912901878356934,0.31124621629714966,-8.528146743774414,1007.1103515625
1557590671523,,4.924872875213623,,,
1557590671524,0.038767247168762675,,0.2825157940387726,-8.518569946289062,
1557590671584,0.06144049139322134,4.9368438720703125,0.2968810200691223,-8.537723541259766,
1557590671645,0.04618587934643996,4.903325080871582,0.26815059781074524,-8.53293514251709,1007.118896484375
1557590671706,0.0447409708644642,4.891354084014893,0.30885201692581177,-8.530540466308594,
1557590671766,,4.946420669555664,0.3016694188117981,-8.504204750061035,
1557590671767,0.052265916611124515,,,,
1557590671826,,,,,1007.126220703125
1557590671827,0.057028715194912434,4.90571928024292,0.2944868206977844,-8.547300338745117,
1557590671886,,4.941632270812988,0.29209262132644653,-8.53293514251709,
1557590671887,0.06076723039423551,,,,
1557590671946,,4.955997467041016,,,
1557590671947,0.06666857782185022,,0.2777273952960968,-8.523358345031738,
1557590672007,,4.903325080871582,0.3208230137825012,-8.518569946289062,1007.121826171875
1557590672008,0.04286686783037525,,,,
1557590672067,0.0549741474569553,4.93923807144165,0.2753331959247589,-8.525752067565918,
1557590672127,0.0643604218772213,4.929661273956299,0.272938996553421,-8.544905662536621,
1557590672187,,4.917690277099609,0.2992752194404602,,1007.115966796875
1557590672188,0.03749844540413488,,,-8.520963668823242,
1557590672249,0.028538903400613103,4.912901878356934,0.3016694188117981,-8.51138687133789,
1557590672312,0.04327922783183377,4.920084476470947,0.28969839215278625,-8.528146743774414,
1557590672372,,4.9368438720703125,0.28969839215278625,,1007.118408203125
1557590672373,0.05319340803390303,,,-8.528146743774414,
1557590672433,,4.963180065155029,0.2825157940387726,-8.49941635131836,
1557590672434,0.06257626976044342,,,,
1557590672494,,4.9152960777282715,0.2825157940387726,,
1557590672495,0.026791224798047963,,,-8.51138687133789,
1557590672554,,4.941632270812988,0.2777273952960968,,1007.106689453125
1557590672555,0.04245891654628033,,,-8.504204750061035,
1557590672614,,4.941632270812988,0.27054479718208313,-8.501810073852539,
1557590672615,0.04254248903904424,,,,
1557590672674,0.03777925491409563,4.9152960777282715,0.2992752194404602,-8.520963668823242,
1557590672734,,4.9368438720703125,0.272938996553421,-8.504204750061035,1007.107666015625
1557590672735,0.037988414065464715,,,,
1557590672795,0.049652779544613175,4.93923807144165,0.2825157940387726,-8.523358345031738,
1557590672856,,4.960785865783691,,,
1557590672857,0.05821676174527117,,0.272938996553421,-8.506598472595215,
1557590672918,,4.903325080871582,0.30885201692581177,,1007.10400390625
1557590672919,0.0357463017425222,,,-8.51138687133789,
1557590672979,0.0464257452575069,4.9152960777282715,0.26815059781074524,-8.528146743774414,
1557590673041,,4.948814868927002,0.2849099934101105,,
1557590673042,0.0498226357825027,,,-8.513781547546387,
1557590673101,,4.941632270812988,0.2825157940387726,,1007.09765625
1557590673102,0.05071698303576321,,,-8.523358345031738,
1557590673161,0.03979241913256478,4.920084476470947,0.3064578175544739,-8.516175270080566,
1557590673222,0.04194506923711928,4.917690277099609,0.24420857429504395,-8.497021675109863,
1557590673281,,4.960785865783691,0.3256114423274994,-8.518569946289062,1007.095947265625
1557590673282,0.07420966444119295,,,,
1557590673342,,4.9368438720703125,0.28969839215278625,-8.487444877624512,
1557590673343,0.027057817384087517,,,,
1557590673402,,4.891354084014893,,,
1557590673403,0.032946347533818435,,0.27054479718208313,-8.506598472595215,
1557590673464,,4.900930881500244,0.272938996553421,,1007.09716796875
1557590673465,0.06636765354143295,,,-8.549694061279297,
1557590673528,,5.006275653839111,,,
1557590673529,0.10123869740130927,,0.2777273952960968,-8.516175270080566,
1557590673588,0.05532198709752807,4.910507678985596,0.3280056416988373,-8.518569946289062,
1557590673650,,,,,1007.098388671875
1557590673651,0.039426644096884206,4.929661273956299,0.272938996553421,-8.516175270080566,
1557590673707,,4.874594688415527,0.26336219906806946,,
1557590673708,0.06810305770268903,,,-8.540117263793945,
1557590673768,,4.932055473327637,,,
1557590673769,0.036233425212546196,,0.304063618183136,-8.504204750061035,
1557590673832,0.07155723949112741,4.972756862640381,0.3016694188117981,-8.513781547546387,1007.112548828125
1557590673891,0.02985103349471518,4.9368438720703125,0.272938996553421,-8.492233276367188,
1557590673952,0.0874853778653202,4.948814868927002,0.2298433631658554,-8.542511940002441,
1557590674012,,4.891354084014893,0.3208230137825012,,1007.1064453125
1557590674013,0.04343664837849718,,,-8.494627952575684,
1557590674070,,4.948814868927002,,,
1557590674071,0.046880071087556395,,0.28969839215278625,-8.506598472595215,
1557590674131,,4.955997467041016,0.2801215946674347,-8.51138687133789,
1557590674132,0.053952894555004884,,,,
1557590674190,,,,,1007.107666015625
1557590674191,0.06443008097600977,4.953603267669678,0.29209262132644653,-8.530540466308594,
1557590674250,,4.90571928024292,,,
1557590674251,0.04654588496508506,,0.31124621629714966,-8.520963668823242,
1557590674311,0.05695397133388064,4.948814868927002,0.2801215946674347,-8.525752067565918,
1557590674372,0.05796948316141309,4.924872875213623,0.2777273952960968,-8.540117263793945,1007.109619140625
1557590674433,0.03765530006805256,4.922478675842285,0.29209262132644653,-8.518569946289062,
1557590674494,0.0498756832974398,4.920084476470947,0.28969839215278625,-8.53293514251709,
1557590674555,,4.932055473327637,0.27054479718208313,,1007.109375
1557590674556,0.04466829565017835,,,-8.520963668823242,
1557590674614,,4.948814868927002,,,
1557590674615,0.05577186343545666,,0.28969839215278625,-8.523358345031738,
1557590674674,,4.900930881500244,,,
1557590674675,0.03392497590997265,,0.2944868206977844,-8.516175270080566,
1557590674735,,4.927267074584961,0.26575639843940735,-8.508993148803711,1007.110595703125
1557590674736,0.03515837252355521,,,,
1557590674796,,4.941632270812988,0.2825157940387726,-8.53532886505127,
1557590674797,0.060184846156279725,,,,
1557590674857,,4.9368438720703125,,,
1557590674858,0.03603867078198599,,0.3016694188117981,-8.49941635131836,
1557590674919,,,,,1007.115478515625
1557590674920,0.05887172248650891,4.944026470184326,0.2968810200691223,-8.530540466308594,
1557590674982,0.04499650281406738,4.927267074584961,0.2825157940387726,-8.525752067565918,
1557590675041,,4.9368438720703125,,,
1557590675042,0.040835949193501406,,0.2992752194404602,-8.51138687133789,
1557590675101,,,,,1007.10546875
1557590675102,0.043802645685962815,4.941632270812988,0.2561795711517334,-8.497021675109863,
1557590675162,,4.917690277099609,0.2944868206977844,-8.53532886505127,
1557590675163,0.053007469527527225,,,,
1557590675223,,4.922478675842285,0.2825157940387726,-8.547300338745117,
1557590675224,0.0643139405622119,,,,
1557590675283,,,,,1007.099365234375
1557590675284,,4.946420669555664,0.28969839215278625,-8.516175270080566,
1557590675285,0.04881703250773594,,,,
1557590675344,,4.908113479614258,0.2944868206977844,-8.508993148803711,
1557590675345,0.026911940587889916,,,,
1557590675405,,4.9583916664123535,,,
1557590675406,0.052558400005974365,,0.2753331959247589,-8.504204750061035,
1557590675465,0.05572791369238799,4.93923807144165,0.272938996553421,-8.530540466308594,1007.096435546875
1557590675526,,4.8937482833862305,,,
1557590675527,0.026508302478607186,,0.2992752194404602,-8.497021675109863,
1557590675588,0.05150642163206763,4.896142482757568,0.30885201692581177,-8.528146743774414,
1557590675651,,4.896142482757568,0.26096799969673157,-8.53532886505127,1007.093017578125
1557590675652,0.05607413152410884,,,,
1557590675709,,4.920084476470947,,,
1557590675710,0.05835199949724247,,0.29209262132644653,-8.542511940002441,
1557590675769,,4.912901878356934,0.2849099934101105,-8.530540466308594,
1557590675770,0.04425135644521475,,,,
1557590675830,,,,,1007.089111328125
1557590675831,0.05335581814750464,4.8937482833862305,0.28969839215278625,-8.540117263793945,
1557590675891,,4.903325080871582,,,
1557590675892,0.06263187770376688,,0.3280056416988373,-8.53532886505127,
1557590675952,0.04929802807095673,4.944026470184326,0.2801215946674347,-8.513781547546387,
1557590676012,,,,,1007.09228515625
1557590676013,0.007179126474753589,4.908113479614258,0.28969839215278625,-8.489839553833008,
1557590676073,0.06315618875836551,4.929661273956299,0.2777273952960968,-8.544905662536621,
1557590676134,0.07278353772533694,4.941632270812988,0.28969839215278625,-8.549694061279297,
1557590676193,,,,,1007.087890625
1557590676194,0.04559093811569037,4.929661273956299,0.2968810200691223,-8.523358345031738,
1557590676253,,4.920084476470947,0.28730419278144836,,
