timestamp,LinearAccelerometerSensor,AccX,AccY,AccZ,BarometerSensor
1557393761283,,,,9.813833236694336,
1557393761285,0.05177878233926739,-0.2059013396501541,,,
1557393761286,,,0.24899697303771973,,
1557393761301,0.27990483092901997,-0.21547815203666687,0.48602294921875,9.765948295593262,1000.13818359375
1557393761355,,,,9.885659217834473,
1557393761356,0.08922703168415162,-0.21787235140800476,0.1843535304069519,,
1557393761416,0.31077507319768277,-0.3711012601852417,0.05985504388809204,9.583989143371582,
1557393761476,0.4860170280903546,-0.16998831927776337,0.4836287498474121,10.20887565612793,1000.140625
1557393761537,,,,9.600749015808105,
1557393761538,0.38200977397692626,-0.3519476354122162,-0.08619125932455063,,
1557393761597,0.17259563745740594,-0.1867477297782898,0.19153612852096558,9.971850395202637,
1557393761660,,,,9.655815124511719,
1557393761661,0.2591097733835529,-0.26575639843940735,-0.019153613597154617,,1000.135009765625
1557393761719,0.23910234032055533,-0.13407529890537262,0.3471592366695404,9.964667320251465,
1557393761788,0.20026712757733553,-0.26575639843940735,0.040701430290937424,9.672574996948242,
1557393761840,0.12651835601862887,-0.17717093229293823,0.19153612852096558,9.923966407775879,1000.119140625
1557393761904,0.09938876648982219,-0.21787235140800476,0.2825157940387726,9.832986831665039,
1557393761970,,,,9.732429504394531,
1557393761971,0.3454210132448875,-0.5674257874488831,0.17238251864910126,,
1557393762023,,0.21547815203666687,,10.079588890075684,
1557393762024,0.6213363317683662,,0.5291185975074768,,1000.085205078125
1557393762088,,,,9.361329078674316,
1557393762089,0.5810970771778409,-0.40462008118629456,-0.22266076505184174,,
1557393762138,,,,10.649409294128418,
1557393762139,1.1721806445489535,-0.7852981686592102,-0.6416460275650024,,
1557393762198,,,,10.967838287353516,
1557393762199,2.891261345180974,2.207453966140747,1.4317326545715332,,999.940673828125
1557393762261,,,,11.659762382507324,
1557393762262,2.081117239718633,-0.33997663855552673,-1.50355863571167,,
1557393762318,,,,11.520898818969727,
1557393762319,1.8185051717194296,-0.8523358106613159,-1.1420341730117798,,
1557393762384,,-0.8667010068893433,,10.821791648864746,
1557393762385,1.0679007318096438,,-0.5937620401382446,,999.941162109375
1557393762447,1.0004806555498795,-1.3694833517074585,-0.2537853717803955,8.923190116882324,
1557393762503,,,,12.200851440429688,
1557393762504,2.7622592078856525,-0.3902548849582672,0.3878606855869293,,
1557393762563,,-3.845088005065918,,9.220070838928223,
1557393762564,1.5825751229243739,,0.14604631066322327,,999.95458984375
1557393762633,0.3346326570607356,-3.529053211212158,1.3239935636520386,9.402029991149902,
1557393762684,2.313101509838709,-2.671929121017456,3.6343982219696045,7.299921035766602,
1557393762744,1.102204859234283,-3.1699230670928955,2.5474305152893066,8.212111473083496,1000.01171875
1557393762803,,,,8.863334655761719,
1557393762805,0.4679402509873156,-3.2824504375457764,3.35667085647583,,
1557393762864,,,,8.53293514251709,
1557393762866,1.6525593069171278,-5.446808815002441,3.4308910369873047,,
1557393762926,,,,6.598419666290283,
1557393762927,7.324572908104118,2.911349296569824,5.954379558563232,,999.96630859375
1557393762984,3.080840795864085,-5.456385612487793,2.4013843536376953,9.964667320251465,
1557393763044,1.3957787498315932,-0.33518823981285095,4.2760443687438965,8.183381080627441,
1557393763105,,,,9.945513725280762,
1557393763108,1.2705537405076597,0.3447650372982025,3.1292216777801514,,999.9755859375
1557393763164,5.6570106964306905,2.0805611610412598,,11.441889762878418,
1557393763165,,,8.616731643676758,,
1557393763226,2.528533513998736,0.36152446269989014,2.1499931812286377,9.217676162719727,
1557393763288,3.277375176771254,-0.3256114423274994,2.406172752380371,6.356605529785156,1000.016357421875
1557393763347,4.138732247229556,-0.8355764150619507,3.6104562282562256,4.455609321594238,
1557393763415,3.1800869777468597,-2.4133553504943848,6.7061591148376465,5.365406036376953,
1557393763467,3.099649218740056,-4.953603267669678,6.1530985832214355,8.983044624328613,1000.159912109375
1557393763530,4.087534605107242,-4.965574264526367,5.293580055236816,11.453861236572266,
1557393763588,0.6714234276186085,-3.136404275894165,4.395754337310791,7.733271598815918,
1557393763648,1.5696391469687474,-1.0103530883789062,4.211400985717773,7.955932140350342,1000.1552734375
1557393763711,1.1334247907499735,-2.762908697128296,4.185064792633057,7.2783732414245605,
1557393763768,1.6264833868980109,-2.1739351749420166,5.5976433753967285,6.916848659515381,
1557393763830,0.1567510498645218,-2.82515811920166,4.548983097076416,8.286332130432129,1000.140380859375
1557393763887,,,,9.703699111938477,
1557393763888,1.366110371943722,-2.7724854946136475,4.4508209228515625,,
1557393763948,0.39433234460184885,-2.6671407222747803,4.2975921630859375,8.08282470703125,
1557393764008,1.3243330734550962,-3.0813376903533936,4.125209331512451,9.519346237182617,1000.085693359375
1557393764067,1.3415344070418393,-3.3039982318878174,4.402936935424805,7.204153060913086,
1557393764128,0.8525264079235142,-2.9951462745666504,3.8953661918640137,8.808267593383789,
1557393764190,0.35885590920581195,-2.9664158821105957,4.242525577545166,8.391676902770996,1000.12939453125
1557393764251,0.36291850858557445,-3.141192674636841,4.309563159942627,7.915230751037598,
1557393764315,0.7818707860746195,-3.093308687210083,4.584896087646484,7.268796443939209,
1557393764369,,,,8.382100105285645,
1557393764370,1.1169500565458372,-2.3056161403656006,3.7445313930511475,,1000.13427734375
1557393764433,0.49052605937324073,-3.4189200401306152,4.185064792633057,8.283937454223633,
1557393764490,1.0646801067842417,-3.246537446975708,4.098873138427734,7.402871608734131,
1557393764557,0.7915872651151871,-3.134010076522827,,8.971074104309082,1000.1376953125
1557393764558,,,3.603273630142212,,
1557393764612,0.85320078893921,-2.2026655673980713,3.308786630630493,8.60236644744873,
1557393764694,3.838721855554784,-0.031124621629714966,2.4899697303771973,10.472238540649414,
1557393764745,4.295883452711704,-0.23702596127986908,,8.796297073364258,1000.140625
1557393764746,,,2.094926595687866,,
1557393764791,2.8445170279851655,-4.19224739074707,0.993593692779541,6.909666061401367,
1557393764853,3.3371431195619183,-10.302249908447266,2.006340980529785,4.81473970413208,
1557393764911,,-10.153809547424316,,-0.8834604024887085,
1557393764912,6.293922205276629,,0.15801730751991272,,1000.1474609375
1557393764971,10.745654980137248,-15.693992614746094,-6.2416839599609375,-0.07422025501728058,
1557393765033,3.1529101840171414,-8.83939266204834,-3.1292216777801514,3.1316158771514893,
1557393765092,3.5450725260688096,-8.070854187011719,-2.7485435009002686,0.7206547260284424,1000.143310546875
1557393765152,3.6543734698930948,-5.207388877868652,-2.6623523235321045,3.5170822143554688,
1557393765213,5.486475702502953,-3.751713991165161,-6.852205276489258,5.212177276611328,
1557393765272,4.780627440767267,-10.594342231750488,-5.061342239379883,5.4444146156311035,1000.145263671875
1557393765332,5.341447300604652,-11.372458457946777,-4.230554580688477,2.8562827110290527,
1557393765393,3.7372690901345593,-10.237606048583984,-5.169081687927246,0.5746083855628967,
1557393765452,4.174791552428167,-10.565611839294434,-8.482656478881836,-2.4875755310058594,1000.15625
1557393765513,2.719093388762424,-8.640673637390137,-8.379706382751465,-2.892195701599121,
1557393765575,2.477663776054049,-6.912060260772705,-7.362170219421387,-4.247313976287842,
1557393765635,3.318384952906867,-5.094861030578613,-4.1395745277404785,-0.8906430602073669,1000.14501953125
1557393765695,,,,-2.516305923461914,
1557393765696,2.720542579837878,-4.917690277099609,-5.118803024291992,,
1557393765870,3.6413035272081204,-10.807426452636719,-6.155492782592773,-2.6791117191314697,1000.147705078125
1557393765876,2.8196774769042268,-10.345345497131348,-6.165069580078125,-2.8179752826690674,
1557393765936,4.534707059473012,-6.162675380706787,-7.5201873779296875,-0.38067805767059326,
1557393765998,,-11.72201156616211,,-5.118803024291992,1000.149169921875
1557393765999,5.144846009377257,,-7.570465564727783,,
1557393766057,,,,-4.9152960777282715,
1557393766058,2.449610628600082,-6.380547523498535,-3.4332852363586426,,
1557393766120,1.8674662234355424,-10.26394271850586,-3.0550012588500977,-3.0166940689086914,
1557393766181,1.503293474871486,-8.652645111083984,-0.8475474119186401,-5.281609058380127,1000.14990234375
1557393766241,,,,-5.363011837005615,
1557393766242,2.9213450558124126,-5.4013190269470215,-2.1116859912872314,,
1557393766305,3.3361416113273847,-6.57926607131958,1.41257905960083,-7.283161640167236,
1557393766366,,-8.288725852966309,,-6.603208065032959,
1557393766367,1.1727364997420129,,-0.586579442024231,,1000.16650390625
1557393766426,,,,-4.829104900360107,
1557393766427,1.2341759436698934,-7.553706169128418,-0.016759412363171577,,
1557393766486,,-7.570465564727783,,-7.139509677886963,
1557393766487,1.4245493125962874,,1.256955862045288,,
1557393766547,,-7.108384609222412,,-5.815515995025635,1000.17431640625
1557393766548,0.9585277767842907,,2.2864625453948975,,
1557393766607,1.8472008174079946,-9.244012832641602,3.3470940589904785,-5.781997203826904,
1557393766668,,,,-3.404554843902588,
1557393766669,1.1818382413202115,-7.745242595672607,1.8291701078414917,,
1557393771709,,-7.929595947265625,,-4.496310710906982,1000.183837890625
1557393771710,0.8823817392165652,,2.252943754196167,,
1557393771722,7.504767873326898,-3.0334534645080566,-2.736572504043579,-8.382100105285645,
1557393771771,7.161399354634033,-3.3303346633911133,-2.8419175148010254,-9.17697525024414,
1557393771834,6.24116257523607,-3.2082302570343018,-2.3295583724975586,-9.081207275390625,1000.166748046875
1557393771891,,,,-8.935160636901855,
1557393771892,5.657945916120628,-3.4596214294433594,-2.8658595085144043,,
1557393771953,,,,-8.853757858276367,
1557393771954,2.7690408592639866,-2.978386878967285,-2.8155810832977295,,
1557393772015,,-3.0382418632507324,,-8.995016098022461,1000.181396484375
1557393772016,1.3828528877868966,,-3.0837318897247314,,
1557393772075,0.5737959674214838,-3.3039982318878174,-2.691082715988159,-8.937555313110352,
1557393772135,0.6242677690836137,-3.7205893993377686,-3.134010076522827,-8.808267593383789,
1557393772196,,-3.3207578659057617,,-8.813055992126465,1000.2041015625
1557393772197,0.42778995448936175,,-2.911349296569824,,
1557393772256,,,,-8.920795440673828,
1557393772257,0.5486742394445401,-2.9927520751953125,-2.8227639198303223,,
1557393772317,0.260931910380725,-3.469198226928711,-2.691082715988159,-8.592789649963379,
1557393772378,0.3059600396469568,-3.07415509223938,-2.410961151123047,-9.030928611755371,1000.187744140625
1557393772440,0.5569068138377,-2.8634653091430664,,-9.105149269104004,
1557393772441,,,-2.779668092727661,,
1557393772502,,-2.7269957065582275,,-9.251194953918457,
1557393772503,0.5678624868355702,,-2.403778553009033,,
1557393772561,,,,-8.865729331970215,
1557393772562,0.3432275638436773,-3.3901896476745605,-1.9512743949890137,,1000.18359375
1557393772623,1.2349683566807972,-4.414907932281494,,-8.650250434875488,
1557393772624,,,-2.7246015071868896,,
1557393772683,,,,-7.987056732177734,
1557393772684,1.01064894978697,-3.00711727142334,-2.140416383743286,,
1557393772743,,-3.7852327823638916,,-9.363722801208496,1000.207763671875
1557393772744,0.7808608039358174,,-2.9017724990844727,,
1557393772806,1.1780506424243116,-2.3582887649536133,-3.380612850189209,-8.947132110595703,
1557393772866,0.9335537187620829,-2.4157495498657227,-2.7485435009002686,-9.14345645904541,
1557393772926,0.8061023606551974,-3.268085241317749,-2.2409727573394775,-9.493009567260742,1000.208740234375
1557393772986,,,,-8.554482460021973,
1557393772987,3.1754225262017757,-3.7493197917938232,-5.899312973022461,,
1557393773047,0.5933510544314698,-3.584120035171509,,-8.884882926940918,
1557393773048,,,-2.1116859912872314,,
1557393773200,0.7615925219679597,-3.3734302520751953,-3.0789434909820557,-8.157045364379883,1000.208251953125
1557393773226,,,,-9.107542991638184,
1557393773227,0.6594575423513116,-3.8977603912353516,-2.2577321529388428,,
1557393773285,,,,-8.93037223815918,
1557393773286,0.42386973304254866,-3.3207578659057617,-2.5689783096313477,,1000.209228515625
1557393773346,1.1105396443606943,-3.552995204925537,-3.914519786834717,-8.913613319396973,
1557393773406,0.6161054469523652,-3.7038300037384033,-3.5386300086975098,-8.40843677520752,
1557393773467,,,,-9.014169692993164,
1557393773468,0.8335903407190709,-4.252102375030518,,,1000.197509765625
1557393773469,,,-3.485957622528076,,
1557393773528,1.2009226470672003,-4.168305397033691,-2.5019407272338867,-9.402029991149902,
1557393773588,,-5.74129581451416,,-8.53532886505127,
1557393773589,3.4490582438500823,,-6.414066314697266,,
1557393773649,,-3.0166940689086914,,-8.954314231872559,1000.2041015625
1557393773650,1.3509135810804733,,-2.3942017555236816,,
1557393773709,1.5514758497860939,-3.6822822093963623,-4.912901878356934,-8.803479194641113,
1557393773858,0.40162748634739415,-3.3854012489318848,-3.6104562282562256,-8.611943244934082,1000.22412109375
1557393773891,3.2982855938474374,-4.548983097076416,0.3711012601852417,-8.403648376464844,
1557393773952,0.19769089248199417,-4.084507942199707,-2.6839001178741455,-8.647856712341309,
1557393774011,,,,-8.932766914367676,
1557393774012,0.7107485006439356,-4.448426723480225,-3.047818660736084,,1000.220458984375
1557393774075,,,,-8.746018409729004,
1557393774076,0.2718570949972533,-3.804386615753174,-2.7676970958709717,,
1557393774136,1.3728115265354566,-3.138798475265503,-2.8993782997131348,-9.715670585632324,
1557393774200,1.2529306865161889,-2.6001031398773193,-2.2457611560821533,-9.205705642700195,1000.224365234375
1557393774261,0.9260518768972038,-2.8778305053710938,,-8.554482460021973,
1557393774262,,,-2.456450939178467,,
1557393774323,0.5668081764866432,-3.399766445159912,,-8.542511940002441,
1557393774324,,,-2.1332337856292725,,
1557393774384,,-3.4308910369873047,,-7.979874134063721,
1557393774385,1.2576584810532667,,-2.1116859912872314,,1000.235595703125
1557393774444,1.7967201497899936,-4.517858505249023,-1.3958195447921753,-8.520963668823242,
1557393774506,3.224616029340878,-6.078877925872803,,-9.612719535827637,
1557393774507,,,-1.070208191871643,,
1557393774567,,-3.5865142345428467,,-9.131484985351562,
1557393774568,0.44802739933325714,,-2.0877439975738525,,1000.243408203125
1557393774626,,,,-9.708487510681152,
1557393774627,3.056834839327162,-0.3663128614425659,-1.1468225717544556,,
1557393774687,1.459094185124611,-2.032677173614502,-3.1292216777801514,-9.282320022583008,
1557393774748,,,,-8.798690795898438,
1557393774749,0.6836905056735405,-3.045424461364746,-3.2082302570343018,,1000.24560546875
1557393774809,,,,-8.432378768920898,
1557393774810,0.4187018658601665,-3.7181951999664307,-2.6144683361053467,,
1557393774870,,,,-8.580819129943848,
1557393774871,0.6002568777866818,-4.230554580688477,-3.737348794937134,,
1557393774931,1.0015821457957987,-4.431667327880859,-4.311957359313965,-8.14028549194336,1000.247802734375
1557393774991,1.7156023506934688,-4.654327869415283,-4.99669885635376,-7.797914981842041,
1557393775051,0.9065871104989758,-4.596867084503174,,-8.255207061767578,
1557393775052,,,-4.015076160430908,,
1557393775110,,,,-8.389283180236816,
1557393775111,0.3420456444197692,-4.1156325340271,-2.9496564865112305,,1000.24609375
1557393775170,0.9062185282010901,-4.388571739196777,-2.873042106628418,-9.07641887664795,
1557393775230,1.5016267220917454,-1.8507179021835327,-2.5306711196899414,-8.382100105285645,
1557393775289,,,,-8.676587104797363,
1557393775290,1.2614751527496049,-1.6639702320098877,-2.296039342880249,,1000.244873046875
1557393775349,,-1.4437036514282227,,-8.413225173950195,
1557393775350,1.6942353232464162,,-1.4317326545715332,,
1557393775410,1.376521482516871,-3.4620156288146973,-1.4915876388549805,-8.827422142028809,
1557393775469,2.567022101657473,-5.1810526847839355,-2.8419175148010254,-10.002974510192871,1000.231689453125
1557393775529,2.0302723806139022,-4.970362663269043,-3.4787750244140625,-9.057265281677246,
1557393775590,0.3770184237989572,-3.4739866256713867,-2.9041666984558105,-8.841787338256836,
1557393775649,1.524015424610287,-1.8746598958969116,-2.1547815799713135,-9.222464561462402,1000.21630859375
1557393775709,1.2997281964133893,-2.0925323963165283,-2.7126305103302,-9.670180320739746,
1557393775771,0.2782438474319388,-3.1459810733795166,-2.698265314102173,-9.181763648986816,
1557393775832,,-3.3063924312591553,,-8.999804496765137,1000.188720703125
1557393775833,0.20255961962178864,,-2.5546131134033203,,
1557393775891,0.33349416126233083,-3.426102638244629,-2.628833532333374,-9.047688484191895,
1557393775951,0.3368756258504005,-3.337517261505127,-2.832340717315674,-9.02135181427002,
1557393776012,0.380961125793592,-2.715024709701538,-2.6144683361053467,-9.033323287963867,1000.192138671875
1557393776074,,,,-8.908824920654297,
1557393776075,0.5390235223361624,-2.470816135406494,-2.5306711196899414,,
1557393776708,0.38234701855957326,-2.6192567348480225,-2.47560453414917,-9.181763648986816,1000.18310546875
1557393776740,0.47194259929870075,-3.318363666534424,-2.9735984802246094,-9.066842079162598,1000.210205078125
1557393776800,0.2625490511750857,-3.201047658920288,-2.7054479122161865,-9.08838939666748,
1557393776861,0.0909524233607006,-2.8993782997131348,-2.583343744277954,-8.927978515625,
1557393776924,0.23585776345863968,-2.6384103298187256,-2.628833532333374,-8.956708908081055,1000.207275390625
1557393776981,0.11425251418650775,-2.7557260990142822,-2.674323320388794,-9.042900085449219,
1557393777041,0.41383416699850295,-3.093308687210083,-2.896984100341797,-9.26795482635498,
1557393777102,0.2050265020155918,-2.913743495941162,-2.827552318572998,-8.80587387084961,1000.215576171875
1557393777162,,,,-9.162610054016113,
1557393777163,0.26357266007620106,-2.896984100341797,-2.9257144927978516,,
1557393777223,0.26735979068864907,-2.497152328491211,-2.7676970958709717,-9.14585018157959,
1557393777284,0.3436730255295004,-2.580949544906616,-3.1292216777801514,-9.155426979064941,1000.22509765625
1557393777343,0.3669468111141087,-2.647987127304077,-3.1100680828094482,-9.275136947631836,
1557393777403,,,,-9.258378028869629,
1557393777404,0.38252566743885597,-2.647987127304077,-3.069366693496704,,
1557393777464,0.45635874902299145,-2.006340980529785,-2.7676970958709717,-8.729259490966797,1000.223388671875
1557393777526,0.5448769444909857,-1.946485996246338,-2.4157495498657227,-9.521739959716797,
1557393777586,,-2.185906171798706,,-9.14345645904541,
1557393777587,0.2873602309694164,,-2.5665841102600098,,
1557393777648,0.18202061028554367,-1.9177556037902832,,-9.050082206726074,1000.222900390625
1557393777649,,,-2.717418909072876,,
1557393777707,0.16565031362020854,-2.0254945755004883,-2.9328970909118652,-9.294290542602539,
1557393777770,0.2414657775544887,-1.8770540952682495,-2.8562827110290527,-9.30386734008789,
1557393777829,,,,-9.100360870361328,
1557393777830,0.1759483496842222,-2.1954829692840576,-3.004723072052002,,1000.215576171875
1557393777889,0.2370965775079489,-2.2625205516815186,,-9.30386734008789,
1557393777890,,,-2.980781078338623,,
1557393777952,0.2645513912629015,-2.2409727573394775,-3.043030261993408,-9.210494041442871,
1557393778012,0.15479857329452265,-2.279279947280884,,-9.191340446472168,1000.215576171875
1557393778013,,,-2.741360902786255,,
1557393778071,,,,-9.172186851501465,
1557393778072,0.12029450981836455,-2.5450363159179688,-2.7748796939849854,,
1557393778132,0.21308936895165248,-2.7269957065582275,,-9.100360870361328,
1557393778133,,,-2.5785553455352783,,
1557393778194,0.14719471678889903,-2.6862943172454834,-2.5785553455352783,-9.160215377807617,1000.213623046875
1557393778254,0.04675114431533007,-2.779668092727661,-2.669534921646118,-9.014169692993164,
1557393778314,,,,-9.263166427612305,
1557393778315,0.24918136077046357,-2.8227639198303223,-2.631227731704712,,
1557393778375,0.20093009826827007,-3.00711727142334,,-9.153033256530762,1000.21484375
1557393778376,,,-2.5953147411346436,,
1557393778435,0.17102377518793963,-3.1076738834381104,,-9.016563415527344,
1557393778436,,,-2.7222073078155518,,
1557393778495,,,,-9.047688484191895,
1557393778496,0.3210641717397554,-3.2297780513763428,-2.8802247047424316,,
1557393778554,,,,-8.93037223815918,
1557393778555,0.16540842088470756,-3.251325845718384,-2.6431987285614014,,1000.211669921875
1557393778615,0.24716906779032466,-3.272873640060425,-2.652775526046753,-9.105149269104004,
1557393778677,,,,-8.96389102935791,
1557393778678,0.08141921697936398,-3.1723172664642334,-2.6815059185028076,,
1557393778734,0.09460482197365654,-3.162740468978882,-2.6815059185028076,-8.987833023071289,1000.20556640625
1557393778795,0.15541364229862936,-3.1962592601776123,-2.6886885166168213,-9.038111686706543,
1557393778856,0.16274678491091715,-2.9664158821105957,,-8.822632789611816,
1557393778857,,,-2.6384103298187256,,
1557393778917,0.4936869955305378,-3.3877954483032227,,-9.311050415039062,1000.19482421875
1557393778918,,,-2.734178304672241,,
1557393778977,0.19524132385343754,-2.956839084625244,-2.6791117191314697,-9.081207275390625,
1557393779037,,-3.2752678394317627,,-9.01895809173584,
1557393779038,0.300908643818591,,-2.827552318572998,,
1557393779097,,,,-8.995016098022461,
1557393779098,0.20635055706045108,-3.203441858291626,-2.734178304672241,,1000.18994140625
1557393779157,,-3.0550012588500977,,-9.102754592895508,
1557393779158,0.34973307504324136,,-2.2840683460235596,,
1557393779218,0.23321905385222122,-2.7509377002716064,-2.5043349266052246,-9.121908187866211,
1557393779278,,-2.978386878967285,,-9.14585018157959,1000.199951171875
1557393779279,0.3096415440771497,,-2.8850131034851074,,
1557393779338,0.2737883360683423,-2.829946517944336,-2.913743495941162,-9.006986618041992,
1557393779398,,,,-9.246406555175781,
1557393779399,0.43995305764607306,-2.4851813316345215,-2.4612393379211426,,
1557393779457,,-2.518700122833252,,-9.21288776397705,1000.216552734375
1557393779458,0.35783762281417536,,-2.43011474609375,,
1557393779520,0.16386183887978042,-3.0142998695373535,-2.5665841102600098,-9.030928611755371,
1557393779580,0.34784517619692507,-3.138798475265503,-2.3750481605529785,-9.241618156433105,
1557393779641,,,,-9.006986618041992,
1557393779642,0.37878193733222837,-3.272873640060425,-2.829946517944336,,1000.2197265625
1557393779698,,-3.2752678394317627,,-8.983044624328613,
1557393779699,0.38935035642889515,,-2.8874073028564453,,
1557393779760,0.26749563685985506,-3.24414324760437,-2.6360161304473877,-9.136273384094238,
1557393779820,0.2823883437726931,-2.8179752826690674,-2.4684219360351562,-9.174580574035645,1000.21484375
1557393779880,,,,-9.186552047729492,
1557393779881,0.25748069681572594,-2.8227639198303223,-2.4851813316345215,,
1557393779943,,-2.8993782997131348,,-9.002198219299316,
1557393779944,0.10803322225855372,,-2.6216509342193604,,
1557393780002,,,,-9.097966194152832,
1557393780003,0.2002859794182103,-3.1435868740081787,-2.5498247146606445,,1000.21142578125
1557393780061,0.2707239657659958,-3.248931646347046,-2.607285737991333,-9.004592895507812,
1557393780122,0.2134965009531024,-2.8826189041137695,-2.4420857429504395,-9.148244857788086,
1557393780183,0.18250592560162376,-2.964021682739258,-2.693476915359497,-9.10993766784668,1000.211669921875
1557393780243,,,,-9.208099365234375,
1557393780244,0.23764467413083296,-2.8826189041137695,-2.5474305152893066,,
1557393780304,0.20420823663386112,-3.179499864578247,-2.655169725418091,-8.96389102935791,
1557393780366,0.22864321871560928,-3.203441858291626,,-9.095572471618652,1000.219970703125
1557393780367,,,-2.5785553455352783,,
1557393780429,0.20836135655917312,-3.1435868740081787,-2.738966703414917,-9.02135181427002,
1557393780486,0.1594313872386885,-3.0813376903533936,-2.6408045291900635,-9.097966194152832,
1557393780545,0.26226766158816867,-2.832340717315674,-2.425326347351074,-9.141061782836914,1000.21240234375
1557393780604,0.1795395366326636,-3.004723072052002,-2.6791117191314697,-9.129091262817383,
1557393780667,0.24445671219112386,-3.138798475265503,-2.7054479122161865,-9.121908187866211,
1557393852719,0.10462806459209056,-3.002328872680664,-2.5977089405059814,-9.078812599182129,1000.2099609375
1557393852728,,,,-9.160215377807617,
1557393852729,0.2808693057706647,,-2.382230758666992,,
1557393852789,0.23510071139795904,-3.050212860107422,-2.4181437492370605,-9.14585018157959,
1557393852865,0.24278889098205705,-3.0765492916107178,-2.3965959548950195,-9.148244857788086,
1557393852873,0.2162153159148773,-3.064578056335449,-2.4013843536376953,-9.14345645904541,
1557393852889,0.20740742965369666,-3.093308687210083,-2.3989901542663574,-9.129091262817383,
1557393852909,0.18720295343947582,-3.093308687210083,-2.4181437492370605,-9.129091262817383,1000.126220703125
1557393852929,,,,-9.14345645904541,
1557393852930,0.19487476888157204,-3.07415509223938,-2.387019157409668,,
1557393852950,0.17523655740821958,-3.0406360626220703,-2.4013843536376953,-9.150638580322266,
1557393852968,,,,-9.155426979064941,
1557393852969,0.17317059810704263,-3.0334534645080566,-2.3989901542663574,,
1557393852989,0.17904220687422806,-3.026270866394043,-2.408566951751709,-9.172186851501465,
1557393853009,0.17534458176247822,-3.050212860107422,-2.4229321479797363,-9.169792175292969,
1557393853030,0.17589293216948537,-3.0765492916107178,-2.4444799423217773,-9.165003776550293,
1557393853050,0.15974030329000266,-3.0406360626220703,-2.454056739807129,-9.162610054016113,
1557393853070,0.16502552428386918,-3.071760892868042,-2.427720546722412,-9.155426979064941,
1557393853090,0.1431730738532083,-3.0621838569641113,-2.425326347351074,-9.136273384094238,1000.123046875
1557393853109,,,,-9.124302864074707,
1557393853110,0.13594144837356414,-3.071760892868042,-2.427720546722412,,
1557393853130,0.15350495900770328,-3.047818660736084,-2.4133553504943848,-9.153033256530762,
1557393853150,0.15146776365002682,-3.071760892868042,-2.4013843536376953,-9.138668060302734,
1557393853170,0.15477530029879596,-3.047818660736084,-2.3989901542663574,-9.153033256530762,
1557393853190,0.16965341187838462,-3.0789434909820557,-2.425326347351074,-9.162610054016113,
1557393853210,0.15191973464001085,-3.047818660736084,-2.4157495498657227,-9.155426979064941,
1557393853231,0.15155919110727017,-3.0526070594787598,-2.408566951751709,-9.153033256530762,
1557393853251,0.1638060336301234,-3.0621838569641113,-2.403778553009033,-9.162610054016113,
1557393853271,0.16174934231456373,-3.0621838569641113,-2.4133553504943848,-9.162610054016113,1000.12109375
1557393853291,0.1689854888332587,-3.064578056335449,-2.410961151123047,-9.169792175292969,
1557393853311,0.1546069843575814,-3.0597896575927734,-2.427720546722412,-9.157821655273438,
1557393853331,0.1484547780672316,-3.0765492916107178,-2.4181437492370605,-9.14345645904541,
1557393853351,0.1314955945364844,-3.071760892868042,-2.4133553504943848,-9.126696586608887,
1557393853371,,,,-9.148244857788086,
1557393853372,0.15022237457019647,-3.071760892868042,-2.410961151123047,,
1557393853392,0.13437874173344222,-3.0573954582214355,-2.4013843536376953,-9.136273384094238,
1557393853412,,,,-9.165003776550293,
1557393853413,0.16060127673128555,-3.0621838569641113,-2.4229321479797363,,
1557393853432,0.15870838367905857,-3.0334534645080566,-2.389413356781006,-9.167398452758789,
1557393853452,,-3.0526070594787598,,-9.17697525024414,1000.116455078125
1557393853453,0.17176282538324952,,-2.387019157409668,,
1557393853473,,,,-9.157821655273438,
1557393853474,0.15240117971290337,-3.050212860107422,-2.387019157409668,,
1557393853492,,,,-9.186552047729492,
1557393853493,0.17480161866632327,-3.043030261993408,-2.4133553504943848,,
1557393853512,0.15019616026322863,-3.064578056335449,,-9.153033256530762,
1557393853513,,,-2.3942017555236816,,
1557393853532,0.15111088742345474,-3.0789434909820557,,-9.14345645904541,
1557393853533,,,-2.3750481605529785,,
1557393853554,0.1505564419547821,-3.0597896575927734,-2.4157495498657227,-9.157821655273438,
1557393853574,,,,-9.11233139038086,
1557393853575,0.11883269837285834,-3.0789434909820557,,,
1557393853576,,,-2.4157495498657227,,
1557393853594,0.1521589797044027,-3.0765492916107178,-2.4133553504943848,-9.153033256530762,
1557393853614,0.16399855730029872,-3.0789434909820557,-2.4205379486083984,-9.165003776550293,
1557393853634,0.14706115972805522,-3.07415509223938,-2.3942017555236816,-9.148244857788086,1000.111572265625
1557393853654,,-3.050212860107422,,-9.150638580322266,
1557393853655,0.1395287768004864,,-2.406172752380371,,
1557393853674,0.16454580056098067,-3.0550012588500977,-2.425326347351074,-9.174580574035645,
1557393853694,0.15470041548630611,-3.0406360626220703,-2.38462495803833,-9.167398452758789,
1557393853713,,,,-9.150638580322266,
1557393853714,0.1446415763626715,-3.0621838569641113,-2.382230758666992,,
1557393853734,,-3.045424461364746,,-9.153033256530762,
1557393853735,0.1396235930744175,,-2.4013843536376953,,
1557393853756,,-3.0310592651367188,,-9.14585018157959,
1557393853757,0.12939129951327957,,-2.4013843536376953,,
1557393853775,,,,-9.150638580322266,
1557393853776,0.13619096928510943,-3.043030261993408,-2.403778553009033,,
1557393853795,,,,-9.174580574035645,
1557393853796,0.16695799672753137,-3.0550012588500977,-2.4420857429504395,,
1557393853817,0.15312238540168857,-3.045424461364746,-2.4133553504943848,-9.167398452758789,1000.119384765625
1557393853836,,,,-9.148244857788086,
1557393853837,0.13345102778748597,-3.043030261993408,-2.406172752380371,,
1557393853856,,,,-9.131484985351562,
1557393853857,0.1333180440826526,-3.0789434909820557,-2.3798365592956543,,
1557393853876,0.13466321813711815,-3.07415509223938,,-9.136273384094238,
1557393853877,,,-2.3798365592956543,,
1557393853898,0.13189020805894044,-3.0789434909820557,-2.38462495803833,-9.131484985351562,
1557393853916,,,,-9.155426979064941,
1557393853917,0.1427603106328419,-3.0550012588500977,-2.3989901542663574,,
1557393853937,0.14822329575454338,-3.050212860107422,-2.403778553009033,-9.162610054016113,
1557393853956,,,,-9.174580574035645,
1557393853957,0.16422066557662576,-3.0597896575927734,-2.4229321479797363,,
1557393853979,,,,-9.153033256530762,
1557393853980,0.13899212111769055,-3.047818660736084,-2.4133553504943848,,
1557393853998,0.14586323335077314,-3.0526070594787598,-2.4205379486083984,-9.157821655273438,1000.138427734375
1557393854018,,,,-9.162610054016113,
1557393854019,0.14445037770070074,-3.0334534645080566,-2.406172752380371,,
1557393854038,,,,-9.14585018157959,
1557393854039,0.12795881856962762,-3.0358476638793945,-2.4013843536376953,,
1557393854059,0.1558451414181936,-3.045424461364746,-2.406172752380371,-9.172186851501465,
1557393854078,0.14463049471109715,-3.045424461364746,-2.410961151123047,-9.160215377807617,
1557393854100,0.14898184049517865,-3.0597896575927734,-2.4133553504943848,-9.160215377807617,
1557393854118,,,,-9.148244857788086,
1557393854119,0.13153594464846416,-3.0406360626220703,-2.408566951751709,,
1557393854138,,,,-9.17697525024414,
1557393854139,0.16589272381684636,-3.0573954582214355,-2.425326347351074,,
1557393854158,,-3.0334534645080566,,-9.167398452758789,
1557393854159,0.1575433430467317,,-2.4468741416931152,,
1557393854178,,,,-9.150638580322266,
1557393854179,0.13375870158286193,-3.0334534645080566,-2.4181437492370605,,1000.140625
1557393854198,0.1434190849251414,-3.0334534645080566,-2.4205379486083984,-9.160215377807617,
1557393854218,0.1394596157112842,-3.026270866394043,-2.387019157409668,-9.160215377807617,
1557393854238,0.14867596544982126,-3.0573954582214355,-2.3942017555236816,-9.162610054016113,
1557393854259,0.13705752498175103,-3.0550012588500977,-2.403778553009033,-9.150638580322266,
1557393854279,,,,-9.169792175292969,
1557393854280,0.15602309321340257,-3.0573954582214355,-2.406172752380371,,
1557393854299,0.12094734170331475,-3.069366693496704,-2.3798365592956543,-9.126696586608887,
1557393854319,0.11611710294268587,-3.064578056335449,-2.382230758666992,-9.124302864074707,
1557393854338,,,,-9.155426979064941,
1557393854339,0.14506522977439082,-3.0597896575927734,-2.4181437492370605,,
1557393854359,0.16671428645843536,-3.043030261993408,-2.4420857429504395,-9.17697525024414,1000.142333984375
1557393854380,0.1561749635765982,-3.021482467651367,-2.4660277366638184,-9.157821655273438,
1557393854399,0.1711416203666585,-3.045424461364746,-2.432508945465088,-9.184157371520996,
1557393854419,0.17389259857173844,-3.0550012588500977,,-9.181763648986816,
1557393854420,,,-2.4420857429504395,,
1557393854440,0.12233665782522242,-3.0382418632507324,-2.3774423599243164,-9.141061782836914,
1557393854459,0.10637191989582485,-3.0573954582214355,-2.3798365592956543,-9.117119789123535,
1557393854480,0.13381059849175111,-3.0837318897247314,-2.389413356781006,-9.133879661560059,
1557393854500,0.15672116171254336,-3.090914487838745,-2.406172752380371,-9.155426979064941,
1557393854520,,-3.071760892868042,,-9.129091262817383,
1557393854521,0.12334205024418851,,-2.3965959548950195,,
1557393854540,,-3.047818660736084,,-9.14345645904541,1000.13525390625
1557393854541,0.12651424842152464,,-2.3942017555236816,,
1557393854561,0.11216768532753219,-3.0526070594787598,,-9.126696586608887,
1557393854562,,,-2.3918075561523438,,
1557393854581,,-3.026270866394043,,-9.14585018157959,
1557393854582,0.12390794407719498,,-2.3798365592956543,,
1557393854601,0.15888477575125798,-3.043030261993408,-2.4372973442077637,-9.169792175292969,
1557393854620,0.1663318987302256,-3.043030261993408,,-9.17936897277832,
1557393854621,,,-2.432508945465088,,
1557393854640,0.15820207713215734,-3.0526070594787598,-2.434903144836426,-9.167398452758789,
1557393854662,0.140235965422216,-3.047818660736084,-2.4133553504943848,-9.155426979064941,
1557393854682,,,,-9.150638580322266,
1557393854683,0.13497481488704263,-3.0550012588500977,-2.38462495803833,,
1557393854703,0.1281344907432197,-3.0813376903533936,-2.410961151123047,-9.126696586608887,
1557393854722,,,,-9.14585018157959,
1557393854723,0.1381547446178608,-3.07415509223938,-2.389413356781006,,1000.14990234375
1557393854743,0.15759555096176842,-3.0597896575927734,-2.425326347351074,-9.167398452758789,
1557393854762,0.13617079463536735,-3.0334534645080566,-2.408566951751709,-9.155426979064941,
1557393854783,0.1474113191404639,-3.0526070594787598,,-9.162610054016113,
1557393854784,,,-2.408566951751709,,
1557393854803,0.17432114517224354,-3.0621838569641113,,-9.184157371520996,
1557393854804,,,-2.427720546722412,,
1557393854822,0.1446800818817714,-3.064578056335449,,-9.155426979064941,
1557393854823,,,-2.408566951751709,,
1557393854843,,-3.0406360626220703,,-9.160215377807617,
1557393854844,0.1440949620953097,,-2.4181437492370605,,
1557393854863,0.1402042239618079,-3.047818660736084,-2.3989901542663574,-9.157821655273438,
1557393854882,,,,-9.172186851501465,
1557393854883,0.16663598669815916,-3.071760892868042,-2.427720546722412,,
1557393854902,0.1371718731563093,-3.0621838569641113,-2.382230758666992,-9.150638580322266,1000.1552734375
1557393854922,0.13736717544040997,-3.047818660736084,-2.3942017555236816,-9.155426979064941,
1557393854942,0.14095921669463438,-3.0573954582214355,-2.4013843536376953,-9.155426979064941,
1557393854962,0.16818828984212955,-3.0621838569641113,-2.4205379486083984,-9.17936897277832,
1557393854981,,,,-9.155426979064941,
1557393854982,0.1500653055207618,-3.066972494125366,-2.427720546722412,,
1557393855002,0.15733224266991408,-3.0573954582214355,,-9.169792175292969,
1557393855003,,,-2.4181437492370605,,
1557393855023,0.1390217008640328,-3.066972494125366,-2.408566951751709,-9.148244857788086,
1557393855044,0.14207623603393219,-3.0597896575927734,-2.403778553009033,-9.155426979064941,
1557393855064,0.1274917108632165,-3.0310592651367188,,-9.148244857788086,
1557393855065,,,-2.4013843536376953,,
1557393855084,0.15250873801532547,-3.0621838569641113,,-9.165003776550293,1000.1572265625
1557393855085,,,-2.408566951751709,,
1557393855105,,-3.0526070594787598,,-9.155426979064941,
1557393855106,0.13879210002011355,,-2.3965959548950195,,
1557393855126,0.1439172357638331,-3.0550012588500977,-2.367865562438965,-9.160215377807617,
1557393855145,,,,-9.157821655273438,
1557393855146,0.1409419382373453,-3.0550012588500977,-2.387019157409668,,
1557393855165,,,,-9.153033256530762,
1557393855166,0.13343387987465813,-3.0406360626220703,-2.3989901542663574,,
1557393855185,,,,-9.167398452758789,
1557393855186,0.15896564556087872,-3.07415509223938,-2.408566951751709,,
1557393855206,0.15041491077072747,-3.069366693496704,,-9.155426979064941,
1557393855207,,,-2.425326347351074,,
1557393855226,,,,-9.162610054016113,
1557393855227,0.15086551100640086,-3.0597896575927734,-2.4157495498657227,,
1557393855247,0.1374057403339844,-3.043030261993408,-2.406172752380371,-9.155426979064941,
1557393855267,,,,-9.153033256530762,
1557393855268,,,-2.382230758666992,,
1557393855287,0.1376379921828389,-3.0526070594787598,-2.4157495498657227,-9.150638580322266,
1557393855306,,,,-9.160215377807617,
1557393855307,0.14297776845201743,-3.045424461364746,-2.408566951751709,,
1557393855326,,,,-9.165003776550293,
1557393855327,0.16116613563677273,-3.071760892868042,-2.43011474609375,,
1557393855346,,,,-9.160215377807617,
1557393855347,0.14979728471551332,-3.0573954582214355,-2.4229321479797363,,
1557393855367,0.153372992437137,-3.043030261993408,-2.425326347351074,-9.167398452758789,
1557393855388,0.1458891154506637,-3.0597896575927734,-2.4013843536376953,-9.160215377807617,
1557393855408,0.1700353681889059,-3.0550012588500977,-2.406172752380371,-9.186552047729492,
1557393855428,0.13776173578963627,-3.047818660736084,-2.4013843536376953,-9.155426979064941,
1557393855447,,,,-9.157821655273438,
1557393855448,0.14904507721139526,-3.066972494125366,-2.4157495498657227,,1000.136962890625
1557393855467,,-3.07415509223938,,-9.14585018157959,
1557393855468,0.13736779918099476,,-2.3918075561523438,,
1557393855487,,-3.07415509223938,,-9.172186851501465,
1557393855488,0.17063470927235186,,-2.4372973442077637,,
1557393855508,,,,-9.155426979064941,
1557393855509,0.14144504051951395,-3.064578056335449,-2.3798365592956543,,
1557393855528,0.1501002108592923,-3.0573954582214355,-2.4157495498657227,-9.162610054016113,
1557393855548,0.16450601755603117,-3.069366693496704,,-9.169792175292969,
1557393855549,,,-2.43011474609375,,
1557393855568,,,,-9.148244857788086,
1557393855569,0.14735311393473208,-3.0813376903533936,-2.4181437492370605,,
1557393855588,0.13689245360935817,-3.0382418632507324,-2.3942017555236816,-9.157821655273438,
1557393855608,,,,-9.167398452758789,
1557393855609,0.14759605103968024,-3.0406360626220703,-2.4013843536376953,,
1557393855628,0.13324355549419004,-3.043030261993408,,-9.153033256530762,1000.14111328125
1557393855629,,,-2.3942017555236816,,
1557393855649,,,,-9.14345645904541,
1557393855650,0.12773743955336567,-3.0573954582214355,-2.387019157409668,,
1557393855675,,,,-9.157821655273438,
1557393855676,,-3.0526070594787598,,,
1557393855677,0.14089709687130578,,-2.3989901542663574,,
1557393855691,,-3.0765492916107178,,-9.17936897277832,
1557393855692,0.1724663337217546,,-2.4181437492370605,,
1557393855709,0.15541749545452493,-3.069366693496704,-2.427720546722412,-9.160215377807617,
1557393855730,0.13378828981273863,-3.0621838569641113,-2.403778553009033,-9.14585018157959,
1557393855751,,-3.0573954582214355,,-9.162610054016113,
1557393855752,0.14651941516127884,,-2.3965959548950195,,
1557393855771,,,,-9.186552047729492,
1557393855772,0.17407785650105387,-3.0550012588500977,-2.425326347351074,,
1557393855791,0.1532066494887911,-3.050212860107422,-2.408566951751709,-9.169792175292969,
1557393855813,,-3.0526070594787598,,-9.157821655273438,1000.1376953125
1557393855814,0.14087587733829057,,-2.3989901542663574,,
1557393855832,0.1592246267153233,-3.064578056335449,-2.406172752380371,-9.172186851501465,
1557393855851,0.14252181443545547,-3.0621838569641113,-2.403778553009033,-9.155426979064941,
1557393855871,0.13909967680983704,-3.0621838569641113,-2.408566951751709,-9.150638580322266,
1557393855892,0.1432403704567273,-3.064578056335449,-2.4133553504943848,-9.153033256530762,
1557393855912,0.14229822118467328,-3.07415509223938,-2.410961151123047,-9.148244857788086,
1557393855932,0.1495311502677561,-3.0550012588500977,-2.406172752380371,-9.165003776550293,
1557393855953,0.16427684587478705,-3.0382418632507324,-2.4181437492370605,-9.181763648986816,
1557393855973,0.10616381634969947,-3.028665065765381,-2.387019157409668,-9.129091262817383,
1557393855993,0.13880263463233505,-3.064578056335449,-2.3750481605529785,-9.153033256530762,1000.130615234375
1557393856013,0.1584969899545318,-3.0550012588500977,-2.406172752380371,-9.174580574035645,
1557393856033,0.13178333363277725,-3.0358476638793945,-2.3965959548950195,-9.153033256530762,
1557393856053,0.15972207112293652,-3.069366693496704,-2.4205379486083984,-9.167398452758789,
1557393856073,0.15983544761597185,-3.0621838569641113,-2.4133553504943848,-9.172186851501465,
1557393856093,0.14024142430898806,-3.0621838569641113,-2.4133553504943848,-9.150638580322266,
1557393856113,0.14049864098758755,-3.0621838569641113,-2.389413356781006,-9.155426979064941,
1557393856134,0.12654675956849865,-3.043030261993408,-2.408566951751709,-9.14345645904541,
1557393856154,0.16186007323171092,-3.069366693496704,-2.4205379486083984,-9.169792175292969,
1557393856174,0.15804786480995797,-3.064578056335449,-2.4205379486083984,-9.167398452758789,1000.130615234375
1557393856194,0.1452370178388496,-3.064578056335449,-2.4205379486083984,-9.153033256530762,
1557393856214,0.144655605893649,-3.0621838569641113,-2.403778553009033,-9.157821655273438,
1557393856234,0.128322594911201,-3.0789434909820557,-2.4013843536376953,-9.131484985351562,
1557393856254,0.13764581399343656,-3.066972494125366,-2.387019157409668,-9.150638580322266,
1557393856275,0.1260438857461192,-3.0861260890960693,-2.38462495803833,-9.126696586608887,
1557393856296,0.14407100081446142,-3.066972494125366,-2.4133553504943848,-9.153033256530762,
1557393856355,,,,-9.162610054016113,
1557393856356,0.1433542500133334,-3.047818660736084,-2.3942017555236816,,1000.13427734375
1557393856415,,,,-9.167398452758789,
1557393856416,0.16022226671012996,-3.0621838569641113,-2.43011474609375,,
1557393856475,0.1660815108213694,-3.0382418632507324,-2.403778553009033,-9.186552047729492,
1557393856537,0.1286209952807938,-3.0550012588500977,-2.387019157409668,-9.14585018157959,1000.14892578125
1557393856598,0.15722570952190013,-3.0597896575927734,-2.387019157409668,-9.174580574035645,
1557393856661,0.1382076121238512,-3.069366693496704,-2.43011474609375,-9.138668060302734,
1557393856721,0.13581660172640592,-3.0573954582214355,-2.4013843536376953,-9.150638580322266,1000.146240234375
1557393856927,0.13056308739266625,-3.043030261993408,-2.406172752380371,-9.148244857788086,1000.1474609375
1557393856961,,,,-9.160215377807617,
1557393856962,0.14253591539751112,-3.0526070594787598,-2.3965959548950195,,
1557393857021,0.16670977263515377,-3.0550012588500977,-2.4133553504943848,-9.181763648986816,
1557393857081,0.14627151918836798,-3.069366693496704,-2.3989901542663574,-9.157821655273438,1000.16259765625
1557393857142,0.1254508857075839,-3.069366693496704,-2.389413356781006,-9.136273384094238,
1557393857202,0.15042339314754322,-3.0382418632507324,-2.3942017555236816,-9.172186851501465,
1557393857263,,,,-9.14585018157959,
1557393857264,0.13653509202145347,-3.07415509223938,-2.3942017555236816,,1000.1640625
1557393857325,,,,-9.117119789123535,
1557393857326,0.11660100882445083,-3.0813376903533936,-2.3989901542663574,,
1557393857387,0.14680916066348668,-3.066972494125366,-2.4157495498657227,-9.155426979064941,
1557393857470,0.16739930057218577,-3.0526070594787598,-2.425326347351074,-9.17936897277832,1000.14990234375
1557393857488,0.13130008445811114,-3.066972494125366,-2.3726539611816406,-9.14585018157959,
1557393857508,0.11601778616000091,-3.0813376903533936,-2.406172752380371,-9.114726066589355,
1557393857528,,,,-9.131484985351562,
1557393857529,0.13110951813040012,-3.0885202884674072,-2.3989901542663574,,
1557393857549,0.1310790907628351,-3.093308687210083,-2.434903144836426,-9.11233139038086,
1557393857569,0.15369933349937048,-3.095702886581421,-2.427720546722412,-9.14585018157959,
1557393857589,0.13150749974430875,-3.071760892868042,,-9.133879661560059,
1557393857590,,,-2.4229321479797363,,
1557393857610,0.12634572196136737,-3.0142998695373535,-2.408566951751709,-9.14345645904541,
1557393857630,,,,-9.174580574035645,
1557393857631,0.15372910034788106,-3.0095114707946777,-2.3942017555236816,,1000.145751953125
1557393857650,0.1430079435083768,-3.002328872680664,,-9.165003776550293,
1557393857651,,,-2.38462495803833,,
1557393857670,,-3.043030261993408,,-9.169792175292969,
1557393857671,0.14828296196113103,,-2.382230758666992,,
1557393857690,,-3.050212860107422,,-9.14585018157959,
1557393857691,0.1265222279325061,,-2.38462495803833,,
1557393857710,0.1262750342660554,-3.0382418632507324,-2.387019157409668,-9.148244857788086,
1557393857731,0.1242762077347966,-3.0861260890960693,-2.38462495803833,-9.126696586608887,
1557393857749,,,,-9.126696586608887,
1557393857750,0.1233847988473355,-3.0861260890960693,-2.3750481605529785,,
1557393857770,0.13838452130584256,-3.0885202884674072,-2.367865562438965,-9.14345645904541,
1557393857789,0.14177997136311948,-3.0597896575927734,-2.367865562438965,-9.160215377807617,
1557393857809,0.13831395312096248,-3.071760892868042,-2.3487119674682617,-9.150638580322266,1000.13916015625
1557393857830,0.16805964605377338,-3.093308687210083,-2.387019157409668,-9.174580574035645,
1557393857851,0.19328910822455553,-3.138798475265503,-2.3989901542663574,-9.174580574035645,
1557393857871,0.18502723810684693,-3.1699230670928955,,-9.090784072875977,
1557393857872,,,-2.456450939178467,,
1557393857892,,,,-9.097966194152832,
1557393857893,0.1638930217397829,-3.1459810733795166,-2.4468741416931152,,
1557393857912,0.17295261166484588,-3.1723172664642334,-2.4205379486083984,-9.097966194152832,
1557393857933,0.15368231176009334,-3.1076738834381104,,-9.14585018157959,
1557393857934,,,-2.410961151123047,,
1557393857953,0.1411249690511955,-3.0885202884674072,-2.454056739807129,-9.119514465332031,
1557393857974,0.16883975242706004,-3.047818660736084,-2.4660277366638184,-9.162610054016113,
1557393857994,0.17127345763299762,-2.9951462745666504,,-9.165003776550293,1000.13134765625
1557393857995,,,-2.4684219360351562,,
1557393858015,,,,-9.205705642700195,
1557393858016,0.1969946804036399,-2.985569477081299,-2.4420857429504395,,
1557393858035,,,,-9.191340446472168,
1557393858036,0.17805156072231418,-3.002328872680664,-2.434903144836426,,
1557393858056,,-2.9688100814819336,,-9.181763648986816,
1557393858057,0.16530553196425826,,-2.38462495803833,,
1557393858076,,,,-9.131484985351562,
1557393858077,0.11790082314825144,-3.021482467651367,-2.33913516998291,,
1557393858096,0.14651022365117528,-3.0837318897247314,-2.360682964324951,-9.148244857788086,
1557393858116,,,,-9.14345645904541,
1557393858117,0.1525948850935967,-3.1052796840667725,-2.3702597618103027,,
1557393858137,0.14775059526746348,-3.1076738834381104,,-9.136273384094238,
1557393858138,,,-2.3798365592956543,,
1557393858158,0.1517421017127901,-3.1196448802948,-2.389413356781006,-9.131484985351562,
1557393858180,0.14009331486260193,-3.1100680828094482,-2.4444799423217773,-9.10993766784668,1000.1201171875
1557393858199,0.13098123200213438,-3.0789434909820557,-2.434903144836426,-9.126696586608887,
1557393858219,0.14392300799168922,-3.064578056335449,,-9.148244857788086,
1557393858220,,,-2.434903144836426,,
1557393858239,,-3.023876667022705,,-9.14345645904541,
1557393858240,0.12576448346573846,,-2.406172752380371,,
1557393858260,0.1468432671173073,-3.026270866394043,-2.382230758666992,-9.165003776550293,
1557393858281,,-3.026270866394043,,-9.167398452758789,
1557393858282,0.14794993006972734,,-2.3965959548950195,,
1557393858302,0.12092561354737806,-3.0310592651367188,-2.3798365592956543,-9.138668060302734,
1557393858321,0.12684880151767028,-3.0406360626220703,-2.4013843536376953,-9.14345645904541,
1557393858341,,,,-9.162610054016113,
1557393858342,0.15203811480048074,-3.047818660736084,-2.434903144836426,,
1557393858361,0.16821521596865394,-3.0550012588500977,,-9.174580574035645,1000.108154296875
1557393858362,,,-2.4468741416931152,,
1557393858381,0.12709929048173593,-3.028665065765381,,-9.136273384094238,
1557393858382,,,-2.4468741416931152,,
1557393858401,0.14942126786554322,-3.045424461364746,-2.4444799423217773,-9.157821655273438,
1557393858421,0.13276480070632457,-3.028665065765381,-2.408566951751709,-9.150638580322266,
1557393858441,,,,-9.14345645904541,
1557393858442,0.12651353436326004,-3.0334534645080566,-2.3918075561523438,,
1557393858461,0.13959262639633868,-3.0621838569641113,-2.389413356781006,-9.148244857788086,
1557393858482,0.14096824161646745,-3.07415509223938,-2.4157495498657227,-9.14345645904541,
1557393858501,,-3.0885202884674072,,-9.157821655273438,
1557393858502,0.16159894163326888,,-2.425326347351074,,
1557393858522,0.1350833078584798,-3.1028854846954346,-2.449268341064453,-9.102754592895508,
1557393858541,,,,-9.119514465332031,
1557393858542,,-3.093308687210083,,,
1557393858561,0.13394636109821356,-3.07415509223938,-2.4420857429504395,-9.129091262817383,
1557393858581,,,,-9.160215377807617,
1557393858582,0.16058017867926933,-3.045424461364746,-2.4684219360351562,,
1557393858601,,,,-9.14345645904541,
1557393858602,0.126826832382516,-3.021482467651367,-2.427720546722412,,
1557393858621,,-3.0095114707946777,,-9.17936897277832,
1557393858622,0.1593268013046509,,-2.4205379486083984,,
1557393858641,,-2.9975404739379883,,-9.150638580322266,
1557393858642,0.12839828456385607,,-2.389413356781006,,
1557393858662,0.11638278436644423,-3.028665065765381,-2.38462495803833,-9.136273384094238,
1557393858682,0.10959331828517199,-3.021482467651367,-2.389413356781006,-9.131484985351562,
1557393858702,,,,-9.150638580322266,
1557393858703,0.1415385401998755,-3.0621838569641113,-2.410961151123047,,
1557393858722,0.12324096494694008,-3.064578056335449,-2.406172752380371,-9.129091262817383,1000.10986328125
1557393858742,0.14388655882984822,-3.0526070594787598,-2.406172752380371,-9.157821655273438,
1557393858761,,,,-9.157821655273438,
1557393858762,0.14824214427680993,-3.0621838569641113,-2.4133553504943848,,
1557393858782,0.1365367631862142,-3.071760892868042,-2.4181437492370605,-9.138668060302734,
1557393858801,0.16651043921040834,-3.028665065765381,-2.4588451385498047,-9.174580574035645,
1557393858821,0.15882018512745305,-3.0406360626220703,-2.449268341064453,-9.167398452758789,
1557393858842,0.14622350351857905,-3.026270866394043,-2.432508945465088,-9.162610054016113,
1557393858861,0.14980432244247657,-3.0334534645080566,-2.4468741416931152,-9.160215377807617,
1557393858882,0.16129510393789856,-3.0526070594787598,,-9.167398452758789,
1557393858883,,,-2.4468741416931152,,
1557393858903,,,,-9.162610054016113,
1557393858904,0.14621209588739786,-3.045424461364746,-2.408566951751709,,1000.112548828125
1557393858924,,,,-9.165003776550293,
1557393858925,0.1504639842961227,-3.047818660736084,-2.4181437492370605,,
1557393858945,0.14068831237141538,-3.064578056335449,-2.4133553504943848,-9.148244857788086,
1557393858965,0.09847975648923012,-3.021482467651367,-2.406172752380371,-9.119514465332031,
1557393858985,0.1422907336627072,-3.043030261993408,-2.4181437492370605,-9.157821655273438,
1557393859005,,,,-9.169792175292969,
1557393859006,0.16758067744874336,-3.0789434909820557,-2.4229321479797363,,
1557393859026,,,,-9.138668060302734,
1557393859027,0.11910332815125789,-3.0310592651367188,-2.406172752380371,,
1557393859046,0.13524144249513045,-3.026270866394043,-2.4133553504943848,-9.155426979064941,
1557393859067,0.15886192550367703,-3.064578056335449,-2.4205379486083984,-9.167398452758789,
1557393859088,,-3.071760892868042,,-9.153033256530762,1000.111083984375
1557393859089,0.15070894538591464,,-2.427720546722412,,
1557393859108,0.12190878671819683,-3.0406360626220703,-2.4205379486083984,-9.136273384094238,
1557393859128,,,,-9.17697525024414,
1557393859129,0.16484662410526585,-3.0526070594787598,-2.427720546722412,,
1557393859148,0.14681403259291004,-3.047818660736084,-2.4229321479797363,-9.160215377807617,
1557393859169,0.15531268313606256,-3.047818660736084,,-9.160215377807617,
1557393859170,,,-2.451662540435791,,
1557393859189,0.17879626837376392,-3.0573954582214355,-2.4229321479797363,-9.191340446472168,
1557393859210,,,,-9.167398452758789,
1557393859211,0.15626692084244403,-3.0550012588500977,-2.425326347351074,,
1557393859230,0.14181954935549698,-3.064578056335449,-2.3774423599243164,-9.150638580322266,
1557393859250,,-3.0358476638793945,,-9.126696586608887,
1557393859251,0.10883746294679468,,-2.406172752380371,,
1557393859271,0.16354477460807537,-3.066972494125366,-2.4372973442077637,-9.167398452758789,1000.1220703125
1557393859292,0.15648131533720147,-3.064578056335449,,-9.162610054016113,
1557393859293,,,-2.43011474609375,,
1557393859311,0.16726587410435664,-3.0597896575927734,-2.4444799423217773,-9.172186851501465,
1557393859330,,,,-9.162610054016113,
1557393859331,0.14448116053127022,-3.0358476638793945,-2.4157495498657227,,
1557393859350,,-3.0526070594787598,,-9.169792175292969,
1557393859351,0.15669436448561666,,-2.4205379486083984,,
1557393859372,0.13747048792788671,-3.064578056335449,-2.4205379486083984,-9.14345645904541,
1557393859392,0.12920399438591137,-3.0382418632507324,-2.3965959548950195,-9.148244857788086,
1557393859411,,-3.0406360626220703,,-9.141061782836914,
1557393859412,0.12309148146438798,,-2.3989901542663574,,
1557393859432,0.1457844351352053,-3.047818660736084,-2.4181437492370605,-9.160215377807617,
1557393859451,,,,-9.165003776550293,
1557393859452,0.15633602158611526,-3.0526070594787598,-2.4372973442077637,,1000.136474609375
1557393859472,0.1426802295719843,-3.064578056335449,,-9.148244857788086,
1557393859473,,,-2.425326347351074,,
1557393859492,0.14726751159349963,-3.0597896575927734,-2.4157495498657227,-9.157821655273438,
1557393859513,,-3.028665065765381,,-9.153033256530762,
1557393859514,0.1325858299588055,,-2.408566951751709,,
1557393859533,0.1307401113627375,-3.0190882682800293,-2.406172752380371,-9.153033256530762,
1557393859554,,-3.0573954582214355,,-9.174580574035645,
1557393859555,0.16178062149185138,,-2.4157495498657227,,
1557393859574,,,,-9.162610054016113,
1557393859575,0.15490675160340467,-3.071760892868042,-2.403778553009033,,
1557393859594,0.15355917067910774,-3.071760892868042,-2.4229321479797363,-9.157821655273438,
1557393859613,0.12522928250168414,-3.066972494125366,,-9.131484985351562,
1557393859614,,,-2.403778553009033,,
1557393859634,0.12980409976207413,-3.0406360626220703,-2.4013843536376953,-9.148244857788086,1000.140869140625
1557393859653,0.14894791735620586,-3.0621838569641113,-2.4205379486083984,-9.157821655273438,
1557393859673,0.12007199577046687,-3.0334534645080566,-2.410961151123047,-9.138668060302734,
1557393859693,0.12815298001718062,-3.0334534645080566,-2.403778553009033,-9.148244857788086,
1557393859714,0.16760638427768826,-3.069366693496704,-2.4468741416931152,-9.167398452758789,
1557393859734,0.1493101943266367,-3.050212860107422,-2.4372973442077637,-9.157821655273438,
1557393859756,0.12337309116647352,-3.043030261993408,-2.3989901542663574,-9.141061782836914,
1557393859776,,,,-9.157821655273438,
1557393859777,0.15114425732189463,-3.071760892868042,-2.410961151123047,,
1557393859796,,,,-9.14585018157959,
1557393859797,0.14079204545455076,-3.07415509223938,-2.403778553009033,,
1557393859816,,,,-9.141061782836914,
1557393859817,0.12212462552095198,-3.0382418632507324,-2.4013843536376953,,1000.148193359375
1557393859838,0.15988457712093918,-3.0597896575927734,-2.425326347351074,-9.169792175292969,
1557393859857,0.1575386137498385,-3.07415509223938,-2.4468741416931152,-9.153033256530762,
1557393859876,0.1440010591735398,-3.0573954582214355,-2.454056739807129,-9.141061782836914,
1557393859898,0.13470403673743775,-3.0885202884674072,-2.4396915435791016,-9.117119789123535,
1557393859916,0.13666286688800475,-3.071760892868042,,-9.124302864074707,
1557393859917,,,-2.454056739807129,,
1557393859937,,,,-9.165003776550293,
1557393859938,0.15448881234823772,-3.0550012588500977,-2.427720546722412,,
1557393859958,0.1855543536636583,-3.0597896575927734,-2.454056739807129,-9.188945770263672,
1557393859977,0.15233306969593566,-3.043030261993408,-2.4229321479797363,-9.167398452758789,
1557393859998,,,,-9.124302864074707,
1557393859999,0.10942387340430668,-3.028665065765381,-2.3535003662109375,,1000.1533203125
1557393860018,0.13555755683078696,-3.0526070594787598,,-9.141061782836914,
1557393860019,,,-2.33913516998291,,
1557393860039,0.16065199814345427,-3.1004912853240967,-2.3558945655822754,-9.150638580322266,
1557393860060,0.13039382993486037,-3.064578056335449,-2.387019157409668,-9.141061782836914,
1557393860079,,-3.0573954582214355,,-9.174580574035645,
1557393860080,0.16237623586360544,,-2.4205379486083984,,
1557393860099,,,,-9.174580574035645,
1557393860100,0.16971779768846415,-3.0621838569641113,-2.4420857429504395,,
1557393860120,0.1388544841380209,-3.0621838569641113,,-9.148244857788086,
1557393860121,,,-2.4157495498657227,,
1557393860139,,,,-9.121908187866211,
1557393860140,0.11313401305533248,-3.043030261993408,-2.43011474609375,,
1557393860159,,-3.071760892868042,,-9.121908187866211,
1557393860160,0.13165375873237753,,-2.4468741416931152,,
1557393860179,,,,-9.157821655273438,
1557393860180,0.15330012000198048,-3.0597896575927734,-2.4396915435791016,,1000.145263671875
1557393860199,,,,-9.17697525024414,
1557393860200,0.1846941981254765,-3.050212860107422,-2.4803929328918457,,
1557393860221,0.1795312367863397,-3.064578056335449,-2.4612393379211426,-9.17697525024414,
1557393860240,0.11080384194920818,-3.066972494125366,-2.410961151123047,-9.114726066589355,
1557393860259,,-3.050212860107422,,-9.136273384094238,
1557393860260,0.12188273704863417,,-2.406172752380371,,
1557393860280,0.14257407509264475,-3.069366693496704,-2.408566951751709,-9.150638580322266,
1557393860300,0.17402555205390893,-3.0550012588500977,,-9.186552047729492,
1557393860301,,,-2.425326347351074,,
1557393860319,0.15017337713302975,-3.0382418632507324,-2.3989901542663574,-9.169792175292969,
1557393860339,0.13207220875536066,-3.050212860107422,,-9.148244857788086,
1557393860340,,,-2.3965959548950195,,
1557393860359,,,,-9.157821655273438,
1557393860360,0.1434812552590545,-3.045424461364746,-2.4205379486083984,,1000.147216796875
1557393860379,0.13197193195798584,-3.0597896575927734,-2.4181437492370605,-9.141061782836914,
1557393860399,,,,-9.138668060302734,
1557393860400,0.13455962594041956,-3.07415509223938,-2.410961151123047,,
1557393860419,,,,-9.150638580322266,
1557393860420,0.1475251670557837,-3.0789434909820557,-2.4133553504943848,,
1557393860439,,-3.0789434909820557,,-9.129091262817383,
1557393860440,0.12831298540119238,,-2.408566951751709,,
1557393860459,0.13831739384335964,-3.050212860107422,-2.410961151123047,-9.153033256530762,
1557393860479,0.14677922139137484,-3.028665065765381,-2.403778553009033,-9.167398452758789,
1557393860498,0.14048036448800447,-3.0358476638793945,-2.4013843536376953,-9.160215377807617,
1557393860518,0.14514493818113364,-3.043030261993408,-2.408566951751709,-9.162610054016113,
1557393860538,0.13815884992038047,-3.0526070594787598,-2.406172752380371,-9.153033256530762,1000.150390625
1557393860559,0.14501910739412885,-3.0550012588500977,-2.4013843536376953,-9.160215377807617,
1557393860579,0.15567464397655273,-3.066972494125366,-2.4157495498657227,-9.165003776550293,
1557393860599,0.14657487616716763,-3.064578056335449,-2.406172752380371,-9.157821655273438,
1557393860619,0.1458943691988656,-3.0813376903533936,-2.427720546722412,-9.14345645904541,
1557393860639,0.13878322214324312,-3.0789434909820557,-2.427720546722412,-9.136273384094238,
1557393860659,,,,-9.160215377807617,
1557393860660,0.15214860472957642,-3.069366693496704,-2.4157495498657227,,
1557393860679,0.16686734892775149,-3.0573954582214355,-2.4372973442077637,-9.174580574035645,
1557393860699,0.1421853429504935,-3.0573954582214355,-2.408566951751709,-9.155426979064941,
1557393860719,0.1353780748017236,-3.0358476638793945,-2.3989901542663574,-9.155426979064941,1000.1494140625
1557393860739,0.12542473635053686,-3.028665065765381,-2.403778553009033,-9.14585018157959,
1557393860759,,,,-9.167398452758789,
1557393860760,0.15134010072585932,-3.050212860107422,-2.408566951751709,,
1557393860779,,,,-9.174580574035645,
1557393860780,0.16111632754067648,-3.045424461364746,-2.427720546722412,,
1557393860799,,,,-9.17697525024414,
1557393860800,0.17600618381975142,-3.0573954582214355,-2.456450939178467,,
1557393860820,0.12930823273345182,-3.071760892868042,,-9.126696586608887,
1557393860821,,,-2.432508945465088,,
1557393860840,,-3.0765492916107178,,-9.126696586608887,
1557393860841,0.1291220116398744,,-2.425326347351074,,
1557393860860,0.13849254887124268,-3.0837318897247314,-2.408566951751709,-9.138668060302734,
1557393860881,0.13963352470534332,-3.0837318897247314,-2.4229321479797363,-9.136273384094238,
1557393860901,,,,-9.114726066589355,
1557393860902,0.11935707660504073,-3.0765492916107178,-2.425326347351074,,1000.149169921875
1557393860961,0.14157493604051996,-3.045424461364746,-2.410961151123047,-9.157821655273438,
1557393861021,0.1355039715545575,-3.07415509223938,-2.4181437492370605,-9.138668060302734,
1557393861082,0.1544403664428278,-3.069366693496704,-2.4396915435791016,-9.155426979064941,1000.148193359375
1557393867722,0.14281642282386275,-3.069366693496704,-2.4133553504943848,-9.150638580322266,
1557393867733,,,,-9.148244857788086,
1557393867734,,-3.045424461364746,,,
1557393867793,0.14683702617139185,-3.050212860107422,-2.427720546722412,-9.157821655273438,
1557393867855,0.12646014525180138,-3.093308687210083,-2.425326347351074,-9.11233139038086,
1557393867915,0.19057266540976453,-3.1747114658355713,-2.406172752380371,-9.129091262817383,1000.14990234375
1557393867975,0.12465291712454135,-3.090914487838745,-2.456450939178467,-9.093177795410156,
1557393868036,0.14631403874073334,-3.004723072052002,-2.425326347351074,-9.162610054016113,
1557393868096,0.173098678455688,-3.047818660736084,-2.3989901542663574,-9.191340446472168,1000.151611328125
1557393868155,0.1396549863546875,-3.1028854846954346,-2.4229321479797363,-9.121908187866211,
1557393868215,0.13907368968563733,-3.1028854846954346,-2.434903144836426,-9.117119789123535,
1557393868275,0.16225684019579228,-3.064578056335449,-2.4444799423217773,-9.165003776550293,1000.159912109375
1557393868335,,,,-9.174580574035645,
1557393868336,0.1587328460579171,-3.045424461364746,-2.4133553504943848,,
1557393868396,0.12875286281976847,-3.0765492916107178,-2.410961151123047,-9.131484985351562,
1557393868455,,,,-9.153033256530762,
1557393868456,0.15707213358284705,-3.064578056335449,-2.4588451385498047,,1000.1640625
1557393868515,,,,-9.188945770263672,
1557393868516,0.17237751283328598,-3.043030261993408,-2.4133553504943848,,
1557393868577,0.14025749425066303,-3.050212860107422,-2.3750481605529785,-9.155426979064941,
1557393868637,0.14231280893988366,-3.050212860107422,-2.4420857429504395,-9.148244857788086,1000.16162109375
1557393945718,0.15622585825382945,-3.071760892868042,-2.4372973442077637,-9.157821655273438,
1557393945723,0.1348660343781365,-3.0885202884674072,-2.427720546722412,-9.126696586608887,1000.1083984375
1557393945784,0.13583066513019154,-3.093308687210083,-2.43011474609375,-9.124302864074707,
1557393945848,0.15113939557363712,-3.095702886581421,-2.434903144836426,-9.141061782836914,
1557393945904,0.14028730509278028,-3.069366693496704,-2.4229321479797363,-9.14585018157959,1000.099609375
1557393945966,0.12083116255720378,-3.071760892868042,-2.454056739807129,-9.107542991638184,
1557393946026,0.13837819499692472,-3.0885202884674072,-2.4396915435791016,-9.129091262817383,
1557393946087,0.13263996220851226,-3.093308687210083,-2.4396915435791016,-9.119514465332031,1000.1083984375
1557393946147,0.18407228681843596,-3.134010076522827,-2.4396915435791016,-9.157821655273438,
1557393946207,0.1302397133843519,-3.069366693496704,-2.4468741416931152,-9.126696586608887,
1557393946267,0.15866226515601184,-3.1268274784088135,-2.451662540435791,-9.126696586608887,1000.116943359375
1557393946327,0.162885125385268,-3.045424461364746,-2.4660277366638184,-9.160215377807617,
1557393946387,0.1333697772759798,-3.0813376903533936,-2.451662540435791,-9.124302864074707,
1557393946447,,-3.1076738834381104,,-9.08838939666748,1000.11962890625
1557393946448,0.10771564715060751,,-2.410961151123047,,
1557393946510,,,,-9.150638580322266,
1557393946511,0.14667534777320645,-3.0789434909820557,-2.4133553504943848,,
1557393946573,0.12194132665933452,-3.0550012588500977,-2.406172752380371,-9.131484985351562,
1557393946633,,,,-9.148244857788086,
1557393946634,0.17030137533199788,-3.1292216777801514,-2.4396915435791016,,1000.114501953125
1557393946693,0.13864902522995948,-3.090914487838745,-2.4875755310058594,-9.105149269104004,
1557393946754,0.10797858765468522,-3.0837318897247314,-2.3989901542663574,-9.107542991638184,
1557393946814,,-3.141192674636841,,-9.129091262817383,
1557393946815,0.16029841231004877,,-2.4372973442077637,,1000.111328125
1557393946874,0.12471517507896389,-3.093308687210083,-2.4660277366638184,-9.102754592895508,
1557393946934,,-3.1004912853240967,,-9.095572471618652,
1557393946935,0.11509725122333588,,-2.451662540435791,,
1557393946994,,,,-9.105149269104004,
1557393946995,0.12501344012484902,-3.1100680828094482,-2.4468741416931152,,1000.11279296875
1557393947054,0.10948215072526123,-3.0837318897247314,-2.456450939178467,-9.095572471618652,
1557393947114,0.11040188477495037,-3.090914487838745,,-9.100360870361328,
1557393947115,,,-2.4420857429504395,,
1557393947175,0.09101037677482984,-3.1004912853240967,-2.4181437492370605,-9.078812599182129,1000.1259765625
1557393947236,0.09469455001098577,-3.0885202884674072,-2.4468741416931152,-9.081207275390625,
1557393947297,0.11059374944380226,-3.0813376903533936,-2.4660277366638184,-9.093177795410156,
1557393947360,0.12559785771492438,-3.117250680923462,-2.432508945465088,-9.107542991638184,1000.11865234375
1557393947420,,,,-9.090784072875977,
1557393947421,0.10894238114131947,-3.07415509223938,-2.470816135406494,,
1557393947483,0.1324990092883769,-3.1028854846954346,-2.492363929748535,-9.095572471618652,
1557393947542,,,,-9.121908187866211,
1557393947543,0.1547093551782902,-3.1244332790374756,-2.343923568725586,,1000.11572265625
1557393947603,0.11057688487711696,-3.1100680828094482,-2.43011474609375,-9.095572471618652,
1557393947663,,-3.069366693496704,,-9.07641887664795,
1557393947664,0.11149921989381847,,-2.492363929748535,,
1557393947724,0.09921274504925078,-3.1220390796661377,-2.4420857429504395,-9.069235801696777,1000.110107421875
1557393947784,0.09885995035801447,-3.1244332790374756,-2.410961151123047,-9.074024200439453,
1557393947848,0.12428775915768961,-3.050212860107422,-2.4588451385498047,-9.114726066589355,
1557393947908,0.1481194351052317,-3.1076738834381104,,-9.138668060302734,1000.107177734375
1557393947909,,,-2.427720546722412,,
1557393947971,0.10404838363165556,-3.117250680923462,-2.4181437492370605,-9.0859956741333,
1557393948031,,-3.090914487838745,,-9.083600997924805,
1557393948032,0.08929579467153312,,-2.410961151123047,,
1557393948092,0.06792917784992687,-3.0813376903533936,,-9.064447402954102,1000.110595703125
1557393948093,,,-2.403778553009033,,
1557393948150,,,,-9.07641887664795,
1557393948151,0.09071679522385623,-3.1004912853240967,-2.4372973442077637,,
1557393948210,,,,-9.0859956741333,
1557393948211,0.1007208058866146,-3.090914487838745,-2.451662540435791,,
1557393948270,,,,-9.097966194152832,
1557393948271,0.11396263172712764,-3.1028854846954346,-2.449268341064453,,1000.0927734375
1557393948331,,-3.0550012588500977,,-9.102754592895508,
1557393948332,0.11695876049971209,,-2.4660277366638184,,
1557393948392,0.08737540762353262,-3.0813376903533936,-2.4229321479797363,-9.083600997924805,
1557393948451,,-3.1531636714935303,,-9.081207275390625,1000.08447265625
1557393948452,0.12438103044209789,,-2.427720546722412,,
1557393948511,0.09984998067180864,-3.0885202884674072,-2.4803929328918457,-9.066842079162598,
1557393948571,,,,-9.114726066589355,
1557393948572,0.12951063309560923,-3.050212860107422,-2.470816135406494,,
1557393948632,,-3.095702886581421,,-9.081207275390625,1000.08251953125
1557393948633,0.08987947458620293,,-2.410961151123047,,
1557393948694,0.07754197727749611,-3.1004912853240967,,-9.064447402954102,
1557393948695,,,-2.4229321479797363,,
1557393948755,,,,-9.078812599182129,
1557393948756,0.09199272224449029,-3.0765492916107178,-2.456450939178467,,
1557393948815,0.10072328393846723,-3.1052796840667725,,-9.08838939666748,1000.07275390625
1557393948816,,,-2.4229321479797363,,
1557393948877,0.10947680418678893,-3.1196448802948,,-9.0859956741333,
1557393948878,,,-2.4444799423217773,,
1557393948938,0.09318277003240623,-3.07415509223938,-2.4133553504943848,-9.090784072875977,
1557393948999,,,,-9.066842079162598,
1557393949000,0.08776544292170277,-3.1052796840667725,-2.4468741416931152,,1000.078857421875
1557393949059,0.057460592315539474,-3.1004912853240967,-2.434903144836426,-9.035717010498047,
1557393949122,,,,-9.074024200439453,
1557393949123,0.08594524825452365,-3.1004912853240967,-2.427720546722412,,
1557393949181,0.09489773494365872,-3.1052796840667725,,-9.07641887664795,1000.090576171875
1557393949182,,,-2.4468741416931152,,
1557393949241,0.13263986390841734,-3.1220390796661377,-2.4468741416931152,-9.11233139038086,
1557393949302,0.08603076046767322,-3.1028854846954346,-2.4229321479797363,-9.074024200439453,
1557393949361,0.08803007136863678,-3.0621838569641113,-2.4396915435791016,-9.081207275390625,1000.088623046875
1557393949421,,,,-9.08838939666748,
1557393949422,0.10832784691162378,-3.1196448802948,-2.434903144836426,,
1557393949482,0.08415654466165234,-3.093308687210083,-2.406172752380371,-9.07641887664795,
1557393949542,0.10339329797201703,-3.0765492916107178,-2.403778553009033,-9.100360870361328,1000.102783203125
1557393949603,,-3.093308687210083,,-9.066842079162598,
1557393949604,0.07469296790501864,,-2.4181437492370605,,
1557393949663,,,,-9.059659004211426,
1557393949664,0.09486302643384947,-3.138798475265503,-2.406172752380371,,
1557393949723,,-3.093308687210083,,-9.074024200439453,
1557393949724,0.08720187687779492,,-2.4420857429504395,,1000.109619140625
1557393949783,0.062028623514518266,-3.0885202884674072,-2.4205379486083984,-9.05487060546875,
1557393949844,0.14491220477967573,-3.136404275894165,-2.454056739807129,-9.117119789123535,
1557393949903,,-3.098097085952759,,-9.095572471618652,1000.11083984375
1557393949904,0.10940662846340432,,-2.4468741416931152,,
1557393949963,0.09530027420553885,-3.0837318897247314,-2.432508945465088,-9.08838939666748,
1557393950024,0.11990227896413189,-3.112462282180786,-2.451662540435791,-9.100360870361328,
1557393950083,0.12642593227019736,-3.1028854846954346,-2.43011474609375,-9.117119789123535,1000.125244140625
1557393950145,0.10499144208467338,-3.1004912853240967,-2.4444799423217773,-9.090784072875977,
1557393950205,0.11632148309323978,-3.093308687210083,-2.451662540435791,-9.102754592895508,
1557393950265,0.13170586279728574,-3.1052796840667725,-2.456450939178467,-9.114726066589355,1000.1240234375
1557393950325,0.10205134706477227,-3.0885202884674072,-2.451662540435791,-9.08838939666748,
1557393950717,0.1288987287581307,-3.1100680828094482,-2.4420857429504395,-9.114726066589355,1000.122314453125
1557393950733,,,,-9.121908187866211,
1557393950734,0.12803336303201893,-3.093308687210083,-2.425326347351074,,
1557393950794,0.12079573306958959,-3.0885202884674072,-2.449268341064453,-9.10993766784668,
1557393950855,0.14908406960278192,-3.0885202884674072,,-9.14345645904541,1000.1083984375
1557393950856,,,-2.434903144836426,,
1557393950916,,,,-9.133879661560059,
1557393950917,0.14583198867473113,-3.114856481552124,-2.43011474609375,,
1557393950979,0.14968533915550833,-3.1244332790374756,-2.432508945465088,-9.133879661560059,
1557393951040,,,,-9.119514465332031,
1557393951041,0.12686416737111644,-3.093308687210083,-2.434903144836426,,1000.10888671875
1557393951101,0.13508615522856315,-3.0789434909820557,-2.410961151123047,-9.133879661560059,
1557393951163,0.1288513080957772,-3.093308687210083,-2.434903144836426,-9.121908187866211,
1557393951224,0.12338022837942708,-3.1004912853240967,-2.4181437492370605,-9.117119789123535,1000.115966796875
1557393951284,0.1426901638398081,-3.0765492916107178,-2.3942017555236816,-9.14345645904541,
1557393951345,,-3.0885202884674072,,-9.121908187866211,
1557393951346,0.13026975772356067,,-2.4444799423217773,,
1557393951405,0.14322098072819314,-3.112462282180786,-2.4420857429504395,-9.129091262817383,1000.11669921875
1557393951465,0.1362472988657101,-3.090914487838745,-2.454056739807129,-9.124302864074707,
1557393951525,0.11915646119477939,-3.0621838569641113,-2.408566951751709,-9.121908187866211,
1557393951586,0.15255212593555562,-3.1100680828094482,-2.4396915435791016,-9.141061782836914,1000.120361328125
1557393951648,0.13455337589468305,-3.1052796840667725,-2.434903144836426,-9.124302864074707,
1557393954720,0.11931640914739648,-3.0885202884674072,-2.4181437492370605,-9.117119789123535,1000.1240234375
1557393954770,0.14151759453298296,-3.1052796840667725,-2.4444799423217773,-9.129091262817383,1000.093505859375
1557393954830,0.17523446342000035,-3.112462282180786,-2.427720546722412,-9.167398452758789,
1557393954891,0.12896201343657193,-3.069366693496704,-2.427720546722412,-9.129091262817383,
1557393954950,,,,-9.126696586608887,
1557393954951,0.14103313664890935,-3.1052796840667725,-2.449268341064453,,1000.10009765625
1557393955015,,,,-9.14345645904541,
1557393955016,0.1398032803823043,-3.0621838569641113,-2.410961151123047,,
1557393955076,,,,-9.126696586608887,
1557393955077,0.13349671688087883,-3.1004912853240967,-2.427720546722412,,
1557393955139,0.15219775564820381,-3.117250680923462,-2.434903144836426,-9.138668060302734,1000.10009765625
1557393955196,0.13226495802339946,-3.1028854846954346,-2.4157495498657227,-9.126696586608887,
1557393955258,0.13842715577773287,-3.069366693496704,,-9.136273384094238,
1557393955259,,,-2.4396915435791016,,
1557393955318,0.12306695350436905,-3.093308687210083,-2.4205379486083984,-9.119514465332031,1000.105224609375
1557393955377,0.12562985727542028,-3.1004912853240967,-2.3989901542663574,-9.121908187866211,
1557393955438,0.15167459835501063,-3.0550012588500977,-2.4420857429504395,-9.150638580322266,
1557393955497,,,,-9.129091262817383,
1557393955498,0.13229867470444023,-3.071760892868042,-2.4420857429504395,,1000.1064453125
1557393955558,0.13421546897608216,-3.1196448802948,-2.43011474609375,-9.117119789123535,
1557393955620,0.10985025964497026,-3.0861260890960693,-2.406172752380371,-9.10993766784668,
1557393956719,0.14846393701134583,-3.093308687210083,-2.425326347351074,-9.14585018157959,1000.116943359375
1557393956722,0.15756764348224758,-3.1244332790374756,,-9.14345645904541,
1557393956723,,,-2.4229321479797363,,
1557393956782,0.1244126917166178,-3.0861260890960693,-2.4157495498657227,-9.124302864074707,
1557393956843,0.14175705757896664,-3.066972494125366,-2.4181437492370605,-9.14585018157959,1000.10009765625
1557393956904,0.1328180746703687,-3.1052796840667725,-2.425326347351074,-9.124302864074707,
1557393956965,0.14647353450081413,-3.117250680923462,,-9.129091262817383,
1557393956966,,,-2.4420857429504395,,
1557393957026,0.13715285456798781,-3.0789434909820557,,-9.129091262817383,1000.09765625
1557393957027,,,-2.451662540435791,,
1557393957087,,-3.0813376903533936,,-9.121908187866211,
1557393957088,0.1212695599047688,,-2.4181437492370605,,
1557393957147,,,,-9.136273384094238,
1557393957148,0.14365725842749086,-3.1028854846954346,-2.43011474609375,,
1557393957207,,,,-9.117119789123535,
1557393957208,0.12917715563281315,-3.098097085952759,-2.4444799423217773,,1000.104248046875
1557393957267,,,,-9.11233139038086,
1557393957268,0.1274268335655798,-3.1100680828094482,-2.4372973442077637,,
1557393957328,0.13734791266563684,-3.0789434909820557,,-9.133879661560059,
1557393957329,,,-2.4396915435791016,,
1557393957388,,,,-9.117119789123535,
1557393957389,0.12024154273635991,-3.0789434909820557,-2.434903144836426,,1000.12255859375
1557393957449,0.14671573805434257,-3.1028854846954346,-2.4013843536376953,-9.14345645904541,
1557393957509,0.13178920624044632,-3.1028854846954346,-2.4468741416931152,-9.117119789123535,
1557393957572,,-3.0861260890960693,,-9.148244857788086,1000.125244140625
1557393957573,0.1509947224264721,,-2.434903144836426,,
1557393957632,0.15433939818622822,-3.1100680828094482,-2.4444799423217773,-9.141061782836914,
1557393958718,0.12365568636417995,-3.1028854846954346,-2.451662540435791,-9.105149269104004,1000.126953125
1557393958751,0.12475330626381706,-3.095702886581421,-2.456450939178467,-9.107542991638184,
1557393958812,,,,-9.138668060302734,
1557393958813,0.13661900014956946,-3.0765492916107178,-2.4181437492370605,,
1557393958873,0.15350918161784502,-3.1100680828094482,-2.4205379486083984,-9.14585018157959,1000.136474609375
1557393958934,0.1508682024964423,-3.093308687210083,-2.406172752380371,-9.150638580322266,
1557393958994,0.1333865284665489,-3.112462282180786,-2.432508945465088,-9.119514465332031,
1557393959054,0.1672731734848273,-3.134010076522827,-2.43011474609375,-9.148244857788086,1000.138916015625
1557393959114,,,,-9.141061782836914,
1557393959115,0.14111960373808652,-3.066972494125366,-2.434903144836426,,
1557393959175,0.14210350259367435,-3.1292216777801514,-2.427720546722412,-9.121908187866211,
1557393959235,0.1366859669209111,-3.0837318897247314,-2.38462495803833,-9.138668060302734,1000.133544921875
1557393959295,,-3.0837318897247314,,-9.095572471618652,
1557393959296,0.09983252792094544,,-2.427720546722412,,
1557393959357,0.1513796893463697,-3.1531636714935303,-2.4660277366638184,-9.097966194152832,
1557393959416,0.1706582916185143,-3.138798475265503,-2.43011474609375,-9.150638580322266,1000.141357421875
1557393959478,0.1180370452065166,-3.071760892868042,-2.4612393379211426,-9.102754592895508,
1557393959538,0.11905811141529139,-3.093308687210083,-2.4229321479797363,-9.114726066589355,
1557393959597,0.1352757598078364,-3.093308687210083,-2.425326347351074,-9.131484985351562,1000.141357421875
1557393959657,0.16339555348863544,-3.1292216777801514,-2.4444799423217773,-9.14345645904541,
1557393959878,0.14740766737804192,-3.138798475265503,-2.454056739807129,-9.114726066589355,1000.126220703125
1557393959897,0.13009625299965752,-3.093308687210083,-2.4396915435791016,-9.121908187866211,1000.1328125
1557393959956,,,,-9.126696586608887,
1557393959957,0.13893496043946957,-3.1100680828094482,-2.4372973442077637,,
1557393960017,0.16138438613094097,-3.1268274784088135,-2.4205379486083984,-9.148244857788086,
1557393960078,0.11556252131815209,-3.095702886581421,-2.432508945465088,-9.107542991638184,1000.121826171875
1557393960138,0.14105204141058075,-3.095702886581421,-2.4444799423217773,-9.131484985351562,
1557393960198,,-3.1076738834381104,,-9.117119789123535,
1557393960199,0.1295454189157513,,-2.4372973442077637,,
1557393960259,,-3.136404275894165,,-9.148244857788086,1000.130615234375
1557393960260,0.16895661288709177,,-2.4396915435791016,,
1557393960323,0.12140961183338955,-3.0861260890960693,-2.4444799423217773,-9.11233139038086,
1557393960384,0.11808815795976194,-3.1052796840667725,-2.43011474609375,-9.107542991638184,
1557393960446,0.1275520064020243,-3.1028854846954346,-2.427720546722412,-9.119514465332031,1000.126708984375
1557393960508,,-3.0789434909820557,,-9.131484985351562,
1557393960509,0.13774070262168076,,-2.4444799423217773,,
1557393960568,,-3.0837318897247314,,-9.129091262817383,
1557393960569,0.12859408554691557,,-2.403778553009033,,
1557393960631,0.1596968971667614,-3.1100680828094482,-2.4205379486083984,-9.153033256530762,1000.131103515625
1557393960689,0.12182429126824555,-3.07415509223938,-2.4396915435791016,-9.117119789123535,
1557393960748,,,,-9.138668060302734,
1557393960749,0.14022503372788087,-3.090914487838745,-2.4181437492370605,,
1557393960815,0.1396851124655458,-3.117250680923462,-2.427720546722412,-9.126696586608887,1000.125
1557393963718,,,,-9.157821655273438,
1557393963719,0.1721439478968045,-3.1292216777801514,-2.427720546722412,-9.119514465332031,
1557393963772,,-3.1100680828094482,,-9.0859956741333,
1557393963773,0.09657524709914332,,-2.4013843536376953,,1000.101318359375
1557393963832,0.16398789775966474,-3.0837318897247314,-2.4468741416931152,-9.157821655273438,
1557393963893,0.11888337111957588,-3.0813376903533936,-2.4396915435791016,-9.11233139038086,
1557393963954,0.1743350192692649,-3.1244332790374756,,-9.160215377807617,1000.10791015625
1557393963955,,,-2.4372973442077637,,
1557393964016,0.14955860825395914,-3.069366693496704,-2.4612393379211426,-9.138668060302734,
1557393964076,0.13918682980472416,-3.0837318897247314,-2.387019157409668,-9.141061782836914,
1557393964136,0.13629944398525903,-3.0885202884674072,-2.4420857429504395,-9.129091262817383,1000.117431640625
1557393964195,,,,-9.14585018157959,
1557393964196,0.14258301086415326,-3.066972494125366,-2.4181437492370605,,
1557393964256,0.13894151611117866,-3.1004912853240967,-2.4229321479797363,-9.133879661560059,
1557393964316,0.15847209741716303,-3.117250680923462,-2.4420857429504395,-9.14345645904541,1000.116455078125
1557393964376,0.13170015619027195,-3.07415509223938,-2.3989901542663574,-9.136273384094238,
1557393964436,,-3.1028854846954346,,-9.126696586608887,
1557393964437,0.1362884425474167,,-2.434903144836426,,
1557393964496,0.15020221823304827,-3.1100680828094482,-2.4372973442077637,-9.138668060302734,1000.122802734375
1557393964557,,-3.069366693496704,,-9.150638580322266,
1557393964558,0.14737813405796646,,-2.4205379486083984,,
1557393964617,0.14390205991238547,-3.066972494125366,,-9.14345645904541,
1557393964618,,,-2.4372973442077637,,
1557393969720,0.1298267487299078,-3.0861260890960693,-2.408566951751709,-9.131484985351562,1000.129150390625
1557393969741,0.16136308457517426,-3.0526070594787598,-2.4588451385498047,-9.155426979064941,
1557393969796,0.16473229807836418,-3.112462282180786,-2.4468741416931152,-9.150638580322266,1000.123046875
1557393969857,0.13551482363102926,-3.0789434909820557,-2.425326347351074,-9.136273384094238,
1557393969917,0.1288666736653824,-3.0837318897247314,-2.43011474609375,-9.126696586608887,
1557393969978,0.13069848945637894,-3.098097085952759,-2.427720546722412,-9.124302864074707,1000.11572265625
1557393970038,0.13083974491747163,-3.1004912853240967,-2.4396915435791016,-9.119514465332031,
1557393970100,0.12478503727724377,-3.098097085952759,-2.4205379486083984,-9.119514465332031,
1557393970159,0.11737662392677112,-3.098097085952759,-2.4157495498657227,-9.11233139038086,1000.101318359375
1557393970219,0.12396355557527447,-3.095702886581421,-2.43011474609375,-9.117119789123535,
1557393970280,0.15533508420572764,-3.1028854846954346,-2.4229321479797363,-9.150638580322266,
1557393970341,0.1271338130667993,-3.1028854846954346,-2.410961151123047,-9.121908187866211,1000.0888671875
1557393970402,,-3.1004912853240967,,-9.102754592895508,
1557393970403,0.1157065191163897,,-2.4372973442077637,,
1557393970465,0.11648771040738103,-3.095702886581421,-2.449268341064453,-9.100360870361328,
1557393970522,0.1521291443880083,-3.0861260890960693,-2.43011474609375,-9.150638580322266,1000.086669921875
1557393970583,0.1568002548575763,-3.1004912853240967,,-9.153033256530762,
1557393970584,,,-2.4229321479797363,,
1557393970643,,,,-9.150638580322266,
1557393970644,0.15208306383300663,-3.098097085952759,-2.410961151123047,,
1557393970818,,-3.0813376903533936,,-9.097966194152832,1000.090087890625
1557393970819,0.11483348197188029,,-2.4588451385498047,,
1557393970824,0.13172959878077298,-3.090914487838745,-2.4684219360351562,-9.10993766784668,
1557393970883,0.15317720671537122,-3.0358476638793945,-2.470816135406494,-9.141061782836914,1000.094482421875
1557393970944,0.16919505672890828,-3.1244332790374756,-2.367865562438965,-9.155426979064941,
1557393971006,0.16518048992755038,-3.160346269607544,-2.4372973442077637,-9.124302864074707,
1557393971065,,,,-9.107542991638184,
1557393971066,0.14642509532542397,-3.090914487838745,-2.497152328491211,,1000.097412109375
1557393971128,,,,-9.17697525024414,
1557393971129,0.1744467677928216,-3.0789434909820557,-2.4133553504943848,,
1557393971189,,,,-9.10993766784668,
1557393971190,0.13974927715991475,-3.095702886581421,-2.4827871322631836,,
1557393971249,0.163040143282099,-3.1292216777801514,-2.497152328491211,-9.114726066589355,1000.113037109375
1557393971309,0.16589049504190476,-3.00711727142334,-2.4899697303771973,-9.141061782836914,
1557393971489,0.17396087078330133,-3.1028854846954346,-2.4468741416931152,-9.165003776550293,1000.122314453125
1557393971494,0.1441421942896821,-3.112462282180786,-2.4205379486083984,-9.133879661560059,
1557393971548,,,,-9.081207275390625,
1557393971549,0.13153014570122928,-3.093308687210083,-2.5067291259765625,,
1557393971609,0.11606909405998969,-3.1004912853240967,,-9.095572471618652,1000.12451171875
1557393971610,,,-2.4612393379211426,,
1557393971671,,,,-9.138668060302734,
1557393971672,0.1431810095775913,-3.0789434909820557,-2.4468741416931152,,
1557393971732,0.159687525166922,-3.023876667022705,-2.4372973442077637,-9.160215377807617,
1557393971792,,-3.098097085952759,,-9.105149269104004,
1557393971793,0.11275339877452004,,-2.408566951751709,,1000.1337890625
1557393971853,0.1431460956056517,-3.1651346683502197,-2.4612393379211426,-9.071630477905273,
1557393971914,0.20534409124647623,-3.047818660736084,-2.5282769203186035,-9.174580574035645,
1557393971972,,,,-9.129091262817383,
1557393971973,,-3.098097085952759,,,1000.13330078125
1557393972032,0.15961623447371384,-3.1004912853240967,-2.3511061668395996,-9.14585018157959,
1557393972094,,,,-9.11233139038086,
1557393972095,0.15183384241494396,-3.1100680828094482,-2.497152328491211,,
1557393972154,,,,-9.136273384094238,
1557393972155,0.1949049416718785,-3.1435868740081787,-2.52109432220459,,1000.13623046875
1557393972215,,,,-9.10993766784668,
1557393972216,0.1076576463210155,-3.064578056335449,-2.3965959548950195,,
1557393972276,0.13437978824689634,-3.045424461364746,-2.3942017555236816,-9.138668060302734,
1557393972336,,,,-9.14345645904541,
1557393972337,0.15549466429921163,-3.071760892868042,-2.47560453414917,,1000.134521484375
1557393972396,,,,-9.131484985351562,
1557393972397,0.15040478082395442,-3.1268274784088135,-2.4133553504943848,,
1557393972457,,,,-9.117119789123535,
1557393972458,0.14104066452091063,-3.1316158771514893,-2.4205379486083984,,
1557393972717,0.15907089634676655,-3.117250680923462,-2.4157495498657227,-9.148244857788086,1000.126953125
1557393972722,0.122041019739757,-3.069366693496704,-2.4851813316345215,-9.095572471618652,
1557393972782,0.1617343425144461,-3.138798475265503,-2.389413356781006,-9.138668060302734,1000.129638671875
1557393972842,0.11928099430382626,-3.0789434909820557,-2.4205379486083984,-9.119514465332031,
1557393972903,0.1217729456030084,-3.069366693496704,-2.477998733520508,-9.100360870361328,
1557393972963,,,,-9.121908187866211,
1557393972964,0.16737272172065293,-3.1507694721221924,-2.470816135406494,,1000.1259765625
1557393973024,0.13205144011162875,-3.0837318897247314,-2.4157495498657227,-9.131484985351562,
1557393973085,0.14667150624465466,-3.0597896575927734,-2.3558945655822754,-9.14345645904541,
1557393973145,0.14853210947697806,-3.050212860107422,-2.4588451385498047,-9.14345645904541,1000.133544921875
1557393973205,0.15322534693731427,-3.114856481552124,-2.43011474609375,-9.141061782836914,
1557393973267,,,,-9.102754592895508,
1557393973268,0.15591472178426485,-3.1699230670928955,-2.427720546722412,,
1557393973327,,,,-9.114726066589355,
1557393973328,0.11398623052528713,-3.0789434909820557,-2.4157495498657227,,1000.129638671875
1557393973387,,,,-9.124302864074707,
1557393973388,0.1365605119783093,-3.069366693496704,-2.4660277366638184,,
1557393973449,,-3.1268274784088135,,-9.14345645904541,
1557393973450,0.1631094064786493,,-2.4444799423217773,,
1557393973509,0.12270292013800456,-3.0550012588500977,,-9.124302864074707,1000.14111328125
1557393973510,,,-2.43011474609375,,
1557393973570,0.136447781022548,-3.0597896575927734,-2.4396915435791016,-9.136273384094238,
1557393973632,0.149729010305442,-3.093308687210083,,-9.148244857788086,
1557393973633,,,-2.387019157409668,,
1557393973692,0.18106286648708936,-3.136404275894165,-2.4612393379211426,-9.153033256530762,1000.145751953125
1557393973752,,,,-9.131484985351562,
1557393973753,0.1541177216580197,-3.066972494125366,-2.4899697303771973,,
1557393973813,0.14276897381694556,-3.1004912853240967,-2.403778553009033,-9.138668060302734,
1557393973873,,-3.0358476638793945,,-9.117119789123535,
1557393973874,0.11502066693463502,,-2.43011474609375,,1000.14404296875
1557393973934,0.1241854113099337,-3.0621838569641113,-2.4157495498657227,-9.129091262817383,
1557393973997,0.20618537627343753,-3.1435868740081787,-2.4588451385498047,-9.17936897277832,
1557393974056,,,,-9.141061782836914,
1557393974057,,-3.136404275894165,,,1000.15087890625
1557393974058,0.1662415705960312,,-2.4420857429504395,,
1557393974117,0.11393763847520526,-3.0861260890960693,-2.4660277366638184,-9.093177795410156,
1557393974177,,,,-9.133879661560059,
1557393974178,0.15880368882086357,-3.114856481552124,-2.470816135406494,,
1557393974238,,,,-9.10993766784668,
1557393974239,0.11143824083907831,-3.0861260890960693,-2.3989901542663574,,1000.15625
1557393974299,0.09808369074519081,-3.0789434909820557,-2.427720546722412,-9.095572471618652,
1557393974361,,,,-9.141061782836914,
1557393974362,0.16120229436777414,-3.1292216777801514,-2.4396915435791016,,
1557393974421,,,,-9.131484985351562,
1557393974422,0.14787614232570911,-3.071760892868042,-2.477998733520508,,1000.149169921875
1557393974480,0.15198760095096162,-3.1244332790374756,-2.4229321479797363,-9.136273384094238,
1557393974542,0.13871239352287915,-3.1004912853240967,,-9.131484985351562,
1557393974543,,,-2.43011474609375,,
1557393974603,,-3.0789434909820557,,-9.105149269104004,1000.150634765625
1557393974604,0.1283566941546113,,-2.4803929328918457,,
1557393974662,,,,-9.141061782836914,
1557393974663,0.1445108347727939,-3.0789434909820557,-2.4420857429504395,,
1557393974921,0.14429164046710388,-3.1100680828094482,-2.387019157409668,-9.133879661560059,1000.13916015625
1557393974924,,,,-9.157821655273438,
1557393974925,0.16598659149308825,-3.090914487838745,-2.454056739807129,,1000.1328125
1557393974985,0.1412517369952625,-3.1076738834381104,-2.427720546722412,-9.131484985351562,
1557393975045,,,,-9.119514465332031,
1557393975046,0.15114259978524242,-3.1220390796661377,-2.47560453414917,,
1557393975106,0.1511566358963175,-3.1316158771514893,-2.4229321479797363,-9.131484985351562,1000.12548828125
1557393975166,0.1312017516736308,-3.0861260890960693,-2.4444799423217773,-9.124302864074707,
1557393975226,,,,-9.10993766784668,
1557393975227,0.12123139311147826,-3.0789434909820557,-2.4588451385498047,,
1557393975289,0.15603015453779967,-3.1316158771514893,,-9.133879661560059,1000.11767578125
1557393975290,,,-2.4420857429504395,,
1557393975350,0.15264964570642534,-3.098097085952759,-2.473210334777832,-9.133879661560059,
1557393975409,,,,-9.136273384094238,
1557393975410,0.15067902692202115,-3.0861260890960693,-2.470816135406494,,
1557393975471,,-3.1483752727508545,,-9.083600997924805,1000.1142578125
1557393975472,0.1265949846304958,,-2.3798365592956543,,
1557393975531,,,,-9.129091262817383,
1557393975532,0.15864055699181956,-3.0789434909820557,-2.5019407272338867,,
1557393975591,0.1408854430498908,-3.1052796840667725,-2.5067291259765625,-9.095572471618652,
1557393975651,,-3.093308687210083,,-9.114726066589355,
1557393975652,0.1214921918114345,,-2.427720546722412,,1000.10546875
1557393975712,,,,-9.102754592895508,
1557393975713,0.14788276766354613,-3.1244332790374756,-2.499546527862549,,
1557393975772,,,,-9.138668060302734,
1557393975773,0.14490259638670583,-3.047818660736084,-2.454056739807129,,
1557393975832,,,,-9.157821655273438,
1557393975833,0.17187571525424905,-3.1220390796661377,-2.4229321479797363,,1000.101806640625
1557393976719,0.14417295248485396,-3.1244332790374756,-2.4396915435791016,-9.124302864074707,
1557393976733,,,,-9.153033256530762,
1557393976734,0.17120877562438913,-3.1244332790374756,-2.449268341064453,,
1557393976794,0.1628239749152248,-3.069366693496704,-2.4229321479797363,-9.162610054016113,
1557393976854,,,,-9.136273384094238,
1557393976855,0.13897769410156605,-3.0861260890960693,-2.4205379486083984,,1000.12353515625
1557393976915,0.1304967538966108,-3.0765492916107178,-2.477998733520508,-9.11233139038086,
1557393976975,0.14462840835516497,-3.0861260890960693,-2.432508945465088,-9.141061782836914,
1557393977036,0.16156300425681366,-3.1268274784088135,-2.434903144836426,-9.14345645904541,1000.11865234375
1557393977097,0.12376058312881064,-3.0597896575927734,-2.4684219360351562,-9.11233139038086,
1557393977158,0.14790089135826684,-3.095702886581421,-2.4372973442077637,-9.141061782836914,
1557393977218,0.15725274193833952,-3.1052796840667725,-2.4468741416931152,-9.14585018157959,1000.1171875
1557393977280,0.154835551388407,-3.093308687210083,-2.4420857429504395,-9.148244857788086,
1557393977341,0.15967353321143535,-3.069366693496704,,-9.157821655273438,
1557393977342,,,-2.4444799423217773,,
1557393977402,,,,-9.136273384094238,
1557393977403,0.15292350176776845,-3.1220390796661377,-2.432508945465088,,1000.1181640625
1557393977461,,,,-9.124302864074707,
1557393977462,0.13098667841800274,-3.0885202884674072,-2.4420857429504395,,
1557393977522,,-3.098097085952759,,-9.129091262817383,
1557393977523,0.13622895790274087,,-2.43011474609375,,
1557393977582,,-3.0885202884674072,,-9.126696586608887,1000.111083984375
1557393977583,0.13892088950243853,,-2.4612393379211426,,
1557393977642,0.15482369553838612,-3.098097085952759,-2.434903144836426,-9.148244857788086,
1557393980719,0.17099895790790617,-3.1268274784088135,-2.451662540435791,-9.150638580322266,1000.11328125
1557393980757,,,,-9.131484985351562,
1557393980758,0.13769536660917045,-3.0885202884674072,-2.4420857429504395,,
1557393980818,0.13641831221235654,-3.0813376903533936,-2.451662540435791,-9.129091262817383,
1557393980878,0.11878818224374109,-3.0885202884674072,-2.451662540435791,-9.107542991638184,1000.11083984375
1557393980939,,,,-9.119514465332031,
1557393980940,0.12749055667341175,-3.1028854846954346,-2.4181437492370605,,
1557393981000,,,,-9.131484985351562,
1557393981001,0.17443385294932467,-3.112462282180786,-2.5115175247192383,,
1557393981061,,,,-9.14345645904541,
1557393981062,0.16810636095333442,-3.1220390796661377,-2.470816135406494,,1000.1103515625
1557393981122,0.13077630779995816,-3.090914487838745,-2.38462495803833,-9.124302864074707,
1557393981182,,-3.045424461364746,,-9.167398452758789,
1557393981183,0.16842821952894602,,-2.4444799423217773,,
1557393981242,,-3.071760892868042,,-9.17697525024414,
1557393981243,0.19721593325360434,,-2.5019407272338867,,1000.1103515625
1557393981302,,-3.177105665206909,,-9.090784072875977,
1557393981303,0.16848605362046123,,-2.4827871322631836,,
1557393981362,0.1410398589257372,-3.114856481552124,,-9.126696586608887,
1557393981363,,,-2.432508945465088,,
1557393981423,0.1741625964755371,-3.021482467651367,-2.449268341064453,-9.169792175292969,1000.113037109375
1557393981485,,,,-9.148244857788086,
1557393981486,0.1533245705663227,-3.093308687210083,-2.432508945465088,,
1557393981546,0.163463042325658,-3.1531636714935303,-2.4827871322631836,-9.10993766784668,
1557393981606,0.1025006176767114,-3.0885202884674072,-2.449268341064453,-9.090784072875977,1000.116455078125
1557393981665,0.16648833350242093,-3.0550012588500977,-2.43011474609375,-9.167398452758789,
1557393983720,0.11456328093745918,-3.066972494125366,-2.4827871322631836,-9.093177795410156,1000.1142578125
1557393983754,0.14369501663905107,-3.1004912853240967,-2.4229321479797363,-9.136273384094238,1000.134521484375
1557393983808,,,,-9.14585018157959,
1557393983809,0.14750483787813998,-3.0837318897247314,-2.406172752380371,,
1557393983869,0.13976807571360728,-3.0837318897247314,-2.4468741416931152,-9.133879661560059,
1557393983928,,,,-9.126696586608887,
1557393983929,0.13323172852267887,-3.093308687210083,-2.434903144836426,,1000.129638671875
1557393983990,0.14103648462054277,-3.0837318897247314,-2.451662540435791,-9.133879661560059,
1557393984051,0.11982387691906062,-3.090914487838745,,-9.105149269104004,
1557393984052,,,-2.4588451385498047,,
1557393984112,0.14456125540760384,-3.090914487838745,-2.4396915435791016,-9.138668060302734,1000.124267578125
1557393984173,0.12797939266761565,-3.0837318897247314,-2.4444799423217773,-9.121908187866211,
1557393984234,,-3.0861260890960693,,-9.119514465332031,
1557393984235,0.12642652895909787,,-2.4444799423217773,,
1557393984295,0.12111697051235472,-3.0789434909820557,-2.4396915435791016,-9.117119789123535,1000.133056640625
1557393984356,0.13678950113958988,-3.0837318897247314,-2.432508945465088,-9.133879661560059,
1557393984416,,,,-9.10993766784668,
1557393984417,0.12766697531553678,-3.1028854846954346,-2.456450939178467,,
1557393984476,,,,-9.136273384094238,
1557393984477,0.14643648636361692,-3.1076738834381104,-2.43011474609375,,1000.127685546875
1557393984537,0.14545406398537722,-3.0861260890960693,-2.449268341064453,-9.138668060302734,
1557393984597,,,,-9.153033256530762,
1557393984598,0.16009050857543286,-3.098097085952759,-2.4396915435791016,,
1557393984657,0.11220643679973484,-3.0885202884674072,-2.425326347351074,-9.107542991638184,1000.121826171875
1557393986722,0.1518122007297159,-3.0837318897247314,-2.4803929328918457,-9.133879661560059,
1557393986723,,,-2.4420857429504395,,
1557393986755,0.15882162180251158,-3.112462282180786,-2.4588451385498047,-9.141061782836914,
1557393986817,0.13320437987287434,-3.0837318897247314,-2.4612393379211426,-9.121908187866211,
1557393986876,0.15299105064742266,-3.1196448802948,-2.4396915435791016,-9.136273384094238,1000.10400390625
1557393986937,0.17012301412035757,-3.0406360626220703,,-9.162610054016113,
1557393986997,,,,-9.138668060302734,
1557393986998,0.1477372946165758,-3.1028854846954346,-2.434903144836426,,
1557393987057,0.1504598804882216,-3.1316158771514893,-2.4468741416931152,-9.124302864074707,1000.111328125
1557393987118,0.14425275364549894,-3.0813376903533936,-2.4636335372924805,-9.133879661560059,
1557393987180,,,,-9.133879661560059,
1557393987181,0.14445763079072002,-3.1076738834381104,-2.43011474609375,,
1557393987242,0.15275271249530736,-3.066972494125366,,-9.141061782836914,1000.1162109375
1557393987243,,,-2.47560453414917,,
1557393987303,,,,-9.141061782836914,
1557393987304,0.14458885849015796,-3.0550012588500977,-2.456450939178467,,
1557393987365,,,,-9.129091262817383,
1557393987366,0.14243583895328651,-3.1052796840667725,-2.4468741416931152,,
1557393987426,,-3.134010076522827,,-9.119514465332031,
1557393987427,0.15521245034622488,,-2.470816135406494,,1000.122314453125
1557393987486,0.17568338636944816,-3.064578056335449,-2.4468741416931152,-9.174580574035645,
1557393987546,0.14393196354619212,-3.0621838569641113,,-9.133879661560059,
1557393987547,,,-2.473210334777832,,
1557393987611,0.14307196544483297,-3.0573954582214355,-2.403778553009033,-9.14585018157959,1000.124267578125
1557393993719,0.16602903199756147,-3.1196448802948,-2.470816135406494,-9.141061782836914,1000.129638671875
1557393993747,,-3.0885202884674072,,-9.114726066589355,
1557393993748,0.13397218187197393,,-2.47560453414917,,
1557393993805,0.15728555484817383,-3.1100680828094482,-2.4468741416931152,-9.14345645904541,1000.115966796875
1557393993865,0.14933007192105888,-3.112462282180786,-2.432508945465088,-9.136273384094238,
1557393993926,0.1436953082947696,-3.0861260890960693,-2.427720546722412,-9.141061782836914,
1557393993989,,-3.1004912853240967,,-9.131484985351562,1000.12548828125
1557393993990,0.1453332878440912,,-2.456450939178467,,
1557393994050,0.14384928467366842,-3.0885202884674072,-2.4396915435791016,-9.138668060302734,
1557393994112,0.1831696664803458,-3.1220390796661377,-2.432508945465088,-9.169792175292969,
1557393994171,,,,-9.138668060302734,
1557393994172,0.14290321208103077,-3.0621838569641113,-2.456450939178467,,1000.107177734375
1557393994234,,,,-9.136273384094238,
1557393994235,0.15663394247816947,-3.1244332790374756,-2.4444799423217773,,
1557393994297,0.1341173501948398,-3.1004912853240967,-2.454056739807129,-9.119514465332031,
1557393994356,,-3.1100680828094482,,-9.121908187866211,
1557393994357,0.1399631355596402,,-2.454056739807129,,1000.099365234375
1557393994417,,-3.1220390796661377,,-9.150638580322266,
1557393994418,0.16481346308636918,,-2.425326347351074,,
1557393994475,,,,-9.148244857788086,
1557393994476,0.16553393775611563,-3.117250680923462,-2.454056739807129,,
1557393994537,0.1385370996506436,-3.0885202884674072,-2.434903144836426,-9.133879661560059,1000.106689453125
1557393994598,0.13574248938218175,-3.093308687210083,,-9.124302864074707,
1557393994599,,,-2.454056739807129,,
1557393994659,0.1431985641789612,-3.1028854846954346,-2.454056739807129,-9.129091262817383,
1557394000717,0.14407507328516114,-3.098097085952759,-2.4372973442077637,-9.136273384094238,1000.101318359375
1557394000756,0.13876071287158426,-3.090914487838745,,-9.11233139038086,
1557394000757,,,-2.4875755310058594,,
1557394000816,0.14236211089878967,-3.071760892868042,-2.4636335372924805,-9.133879661560059,1000.081787109375
1557394000876,0.14505158657717152,-3.1028854846954346,-2.43011474609375,-9.136273384094238,
1557394000937,,,,-9.148244857788086,
1557394000938,0.1690973358613019,-3.1196448802948,-2.4636335372924805,,
1557394000998,,-3.0813376903533936,,-9.119514465332031,1000.08544921875
1557394000999,0.13279587978264357,,-2.4684219360351562,,
1557394001059,,-3.0861260890960693,,-9.141061782836914,
1557394001060,0.14390273946234813,,-2.4229321479797363,,
1557394001120,,,,-9.117119789123535,
1557394001121,0.15752410574583367,-3.1531636714935303,-2.449268341064453,,
1557394001180,0.14424427642450172,-3.093308687210083,,-9.126696586608887,1000.08349609375
1557394001181,,,-2.473210334777832,,
1557394001241,0.14413531301371132,-3.117250680923462,-2.4444799423217773,-9.126696586608887,
1557394001311,,,,-9.157821655273438,
1557394001313,0.16482826178227997,-3.1028854846954346,-2.425326347351074,,
1557394001364,0.14076318838792815,-3.1028854846954346,-2.454056739807129,-9.126696586608887,1000.078369140625
1557394001424,,,,-9.126696586608887,
1557394001425,0.14340652553160302,-3.1100680828094482,-2.454056739807129,,
1557394001487,0.16011759244928572,-3.1220390796661377,-2.4229321479797363,-9.14585018157959,
1557394001546,,,,-9.133879661560059,
1557394001547,0.1453469943051719,-3.066972494125366,-2.470816135406494,,1000.081787109375
1557394001606,,,,-9.114726066589355,
1557394001607,0.1274076029645105,-3.1052796840667725,-2.4396915435791016,,
1557394001668,0.15095925275066538,-3.112462282180786,-2.434903144836426,-9.138668060302734,
1557394001728,,,,-9.11233139038086,
1557394001729,0.13138227467444707,-3.0861260890960693,-2.47560453414917,,1000.081787109375
1557394001788,0.1331604508872268,-3.1100680828094482,-2.4372973442077637,-9.119514465332031,
1557394001849,,,,-9.133879661560059,
1557394001850,0.1490053058358026,-3.0861260890960693,-2.473210334777832,,
1557394008726,0.1480312057295337,-3.1052796840667725,-2.43011474609375,-9.138668060302734,1000.07421875
1557394008761,,-3.093308687210083,,-9.124302864074707,
1557394008762,0.13861868066418345,,-2.4636335372924805,,1000.126708984375
1557394008821,0.13808758638900165,-3.0861260890960693,-2.43011474609375,-9.133879661560059,
1557394008883,0.1329028159082895,-3.093308687210083,-2.470816135406494,-9.114726066589355,
1557394008943,0.17612055244508987,-3.1316158771514893,-2.434903144836426,-9.157821655273438,1000.113037109375
1557394009003,,-3.1076738834381104,,-9.148244857788086,
1557394009004,0.16182458519625353,,-2.454056739807129,,
1557394009064,,,,-9.119514465332031,
1557394009065,0.13120955968180534,-3.0837318897247314,-2.4612393379211426,,
1557394009125,,-3.090914487838745,,-9.136273384094238,1000.118408203125
1557394009126,0.140464253740836,,-2.4157495498657227,,
1557394009185,,-3.1004912853240967,,-9.117119789123535,
1557394009186,0.1306359176659088,,-2.451662540435791,,
1557394009248,,,,-9.131484985351562,
1557394009249,0.14247553544266012,-3.0885202884674072,-2.4588451385498047,,
1557394009305,,-3.117250680923462,,-9.124302864074707,1000.10986328125
1557394009306,0.14224242836690923,,-2.4468741416931152,,
1557394009366,,,,-9.124302864074707,
1557394009367,0.1429930489116125,-3.114856481552124,-2.454056739807129,,
1557394009427,0.13202835452273745,-3.098097085952759,-2.4588451385498047,-9.117119789123535,
1557394009488,0.14217578609129167,-3.069366693496704,,-9.129091262817383,1000.10498046875
1557394009489,,,-2.473210334777832,,
1557394009548,,-3.1028854846954346,,-9.114726066589355,
1557394009549,0.12414774334750499,,-2.4157495498657227,,
1557394009610,,,,-9.11233139038086,
1557394009611,0.1392852756123045,-3.114856481552124,-2.473210334777832,,
1557394009669,0.12406485909638036,-3.0861260890960693,-2.4420857429504395,-9.117119789123535,1000.087890625
1557394010722,0.16963290164263325,-3.136404275894165,-2.4468741416931152,-9.14585018157959,
1557394010762,0.13386228743335113,-3.0789434909820557,-2.425326347351074,-9.131484985351562,
1557394010820,0.15667911256481623,-3.1747114658355713,-2.454056739807129,-9.095572471618652,1000.094970703125
1557394010881,,,,-9.131484985351562,
1557394010882,0.14361733736815718,-3.069366693496704,,,
1557394010883,,,-2.470816135406494,,
1557394010941,0.1346127569091482,-3.07415509223938,-2.4636335372924805,-9.124302864074707,
1557394011001,,-3.112462282180786,,-9.124302864074707,1000.105224609375
1557394011002,0.13817558669760643,,-2.434903144836426,,
1557394011060,,-3.0837318897247314,,-9.095572471618652,
1557394011061,0.11240810939607343,,-2.4684219360351562,,
1557394011121,0.1240816617948489,-3.0885202884674072,-2.449268341064453,-9.114726066589355,
1557394011181,,,,-9.097966194152832,
1557394011182,0.10063946327524474,-3.0765492916107178,-2.4133553504943848,,1000.10546875
1557394011241,,,,-9.11233139038086,
1557394011242,0.16849978360564036,-3.160346269607544,-2.4875755310058594,,
1557394011303,,,,-9.126696586608887,
1557394011304,0.16866540046517076,-3.162740468978882,-2.454056739807129,,
1557394011363,0.135168930241671,-3.095702886581421,,-9.124302864074707,1000.112060546875
1557394011364,,,-2.449268341064453,,
1557394011423,,-3.0573954582214355,,-9.162610054016113,
1557394011424,0.17150117035909915,,-2.4660277366638184,,
1557394011486,0.1243688324496535,-3.095702886581421,-2.4205379486083984,-9.117119789123535,
1557394011545,0.16008248025825564,-3.1459810733795166,-2.449268341064453,-9.129091262817383,1000.117431640625
1557394011606,0.13419834240496925,-3.0789434909820557,-2.470816135406494,-9.119514465332031,
1557394011666,0.12884046581050942,-3.0885202884674072,,-9.119514465332031,
1557394011667,,,-2.449268341064453,,
1557394011727,,,,-9.129091262817383,
1557394011728,0.15463160771820061,-3.112462282180786,-2.4803929328918457,,1000.121826171875
1557394011787,,-3.1004912853240967,,-9.121908187866211,
1557394011788,0.14074014214885736,,-2.470816135406494,,
1557394012720,0.15634695859487732,-3.136404275894165,-2.427720546722412,-9.133879661560059,1000.123291015625
1557394012742,0.1513115811499295,-3.112462282180786,-2.434903144836426,-9.138668060302734,1000.119873046875
1557394012801,0.16638053731208632,-3.066972494125366,-2.494758129119873,-9.14585018157959,
1557394012862,0.1496369065134103,-3.098097085952759,-2.4851813316345215,-9.126696586608887,
1557394012922,0.13904737620676494,-3.1076738834381104,-2.4588451385498047,-9.121908187866211,1000.124755859375
1557394012983,0.17448623249113634,-3.134010076522827,-2.4660277366638184,-9.148244857788086,
1557394013043,0.1671290589626444,-3.112462282180786,-2.449268341064453,-9.153033256530762,
1557394013102,,,,-9.138668060302734,
1557394013103,0.14696130043339042,-3.093308687210083,-2.4420857429504395,,1000.12109375
1557394013163,0.13705733471820883,-3.1100680828094482,-2.4636335372924805,-9.117119789123535,
1557394013223,,,,-9.155426979064941,
1557394013224,0.17582773547636618,-3.1244332790374756,-2.4612393379211426,,
1557394013283,,,,-9.11233139038086,
1557394013284,0.1250277875770288,-3.07415509223938,-2.4684219360351562,,1000.11083984375
1557394013346,0.14987631581144845,-3.1076738834381104,-2.4588451385498047,-9.133879661560059,
1557394013406,0.12740084123112888,-3.066972494125366,-2.4372973442077637,-9.124302864074707,
1557394013466,,-3.090914487838745,,-9.138668060302734,
1557394013467,0.14592609194495196,,-2.4181437492370605,,1000.100830078125
1557394013526,,,,-9.071630477905273,
1557394013527,0.09036169338368935,-3.090914487838745,-2.4636335372924805,,
1557394013587,,-3.043030261993408,,-9.157821655273438,
1557394013588,0.16819258679459087,,-2.4803929328918457,,
1557394013647,0.17485626887518976,-3.021482467651367,-2.427720546722412,-9.167398452758789,1000.0927734375
1557394014720,0.18820265399751993,-3.2082302570343018,-2.4372973442077637,-9.114726066589355,
1557394014756,0.16616984104728488,-3.1483752727508545,-2.4372973442077637,-9.136273384094238,
1557394014821,0.16108269345499635,-3.0813376903533936,-2.4468741416931152,-9.150638580322266,1000.1357421875
1557394014876,0.1558767748802778,-3.095702886581421,-2.451662540435791,-9.14345645904541,
1557394014937,,,,-9.141061782836914,
1557394014938,0.15730565610994265,-3.1100680828094482,-2.456450939178467,,
1557394014998,,,,-9.10993766784668,
1557394014999,0.12378888215340465,-3.07415509223938,-2.4684219360351562,,1000.130615234375
1557394015061,0.14909530746455635,-3.0813376903533936,-2.4396915435791016,-9.141061782836914,
1557394015121,0.13167119506048364,-3.1076738834381104,,-9.117119789123535,
1557394015122,,,-2.4420857429504395,,
1557394015181,0.13579480777343775,-3.112462282180786,-2.4660277366638184,-9.114726066589355,1000.11669921875
1557394015242,0.15076552763682838,-3.1052796840667725,-2.4372973442077637,-9.138668060302734,
1557394015301,,,,-9.129091262817383,
1557394015302,0.13686181485017393,-3.0813376903533936,-2.4444799423217773,,
1557394015361,,,,-9.105149269104004,
1557394015362,0.12674175419357434,-3.093308687210083,-2.4803929328918457,,1000.117431640625
1557394015423,,,,-9.11233139038086,
1557394015424,0.13032230793111493,-3.0861260890960693,-2.477998733520508,,
1557394015485,,-3.1076738834381104,,-9.129091262817383,
1557394015486,0.14372274072966176,,,,
1557394015544,0.1408024370485317,-3.0837318897247314,-2.454056739807129,-9.131484985351562,1000.106689453125
1557394015603,,,,-9.126696586608887,
1557394015604,0.14422002998437042,-3.1196448802948,-2.434903144836426,,
1557394017719,0.1167985979801533,-3.090914487838745,-2.408566951751709,-9.107542991638184,1000.114013671875
1557394017777,0.18668296742436474,-3.07415509223938,-2.4157495498657227,-9.184157371520996,
1557394017840,0.13095861913300094,-3.0813376903533936,-2.494758129119873,-9.102754592895508,1000.103759765625
1557394017898,0.12172562189866819,-3.098097085952759,-2.4612393379211426,-9.105149269104004,
1557394017961,0.12512352919309558,-3.093308687210083,-2.456450939178467,-9.11233139038086,
1557394018022,0.1283746363412745,-3.0765492916107178,-2.449268341064453,-9.121908187866211,1000.105712890625
1557394018082,0.14647286051953573,-3.136404275894165,-2.451662540435791,-9.117119789123535,
1557394018142,,,,-9.148244857788086,
1557394018143,0.1621163837802111,-3.112462282180786,-2.4468741416931152,,
1557394018203,0.12374250628920845,-3.069366693496704,-2.4420857429504395,-9.119514465332031,1000.107177734375
1557394018262,,,,-9.124302864074707,
1557394018263,0.1422715090855094,-3.114856481552124,-2.451662540435791,,
1557394018323,0.15622917274903744,-3.1028854846954346,-2.4636335372924805,-9.141061782836914,
1557394018385,,,,-9.181763648986816,
1557394018386,0.20114650381152002,-3.0573954582214355,-2.5043349266052246,,1000.10595703125
1557394018445,,,,-9.138668060302734,
1557394018446,0.15302846551519286,-3.117250680923462,-2.4181437492370605,,
1557394018506,,,,-9.14585018157959,
1557394018507,0.15537595063967527,-3.1052796840667725,-2.43011474609375,,
1557394018566,,-3.0597896575927734,,-9.117119789123535,1000.111083984375
1557394018567,0.13362246255008775,,-2.4827871322631836,,
1557394018627,,-3.095702886581421,,-9.102754592895508,
1557394018628,0.12906757288192788,,-2.4851813316345215,,
1557394024720,0.12060523708800025,-3.0885202884674072,-2.4899697303771973,-9.093177795410156,1000.116943359375
1557394024733,0.1396860992224862,-3.112462282180786,-2.410961151123047,-9.124302864074707,1000.08544921875
1557394024795,0.13240550595502787,-3.069366693496704,-2.454056739807129,-9.126696586608887,
1557394024856,,,,-9.131484985351562,
1557394024857,0.14515168176654705,-3.1028854846954346,-2.454056739807129,,
1557394024916,,,,-9.121908187866211,
1557394024917,0.14054071364115928,-3.0861260890960693,-2.4827871322631836,,1000.087890625
1557394024976,,,,-9.11233139038086,
1557394024977,0.1260442625782045,-3.1028854846954346,-2.4444799423217773,,
1557394025037,0.13798537038660708,-3.1196448802948,-2.4468741416931152,-9.117119789123535,
1557394025098,0.13730680157484104,-3.0789434909820557,-2.4660277366638184,-9.126696586608887,1000.09814453125
1557394025158,0.15601169772260098,-3.138798475265503,-2.432508945465088,-9.129091262817383,
1557394025219,0.16064334857354592,-3.1100680828094482,-2.454056739807129,-9.14585018157959,
1557394025279,0.14840003845925745,-3.1052796840667725,-2.4444799423217773,-9.136273384094238,1000.107666015625
1557394025338,,,,-9.160215377807617,
1557394025339,0.16788927682128488,-3.0526070594787598,-2.4684219360351562,,
1557394025399,0.11362919727264435,-3.0813376903533936,-2.4588451385498047,-9.102754592895508,
1557394025458,,-3.1244332790374756,,-9.150638580322266,1000.1083984375
1557394025459,0.16776416761837018,,-2.403778553009033,,
1557394025518,0.12580828553838116,-3.0765492916107178,,-9.10993766784668,
1557394025519,,,-2.47560453414917,,
1557394025580,,,,-9.093177795410156,
1557394025581,0.1057865115523629,-3.071760892868042,-2.4660277366638184,,
1557394025641,0.14621525520881756,-3.0813376903533936,,-9.129091262817383,1000.119384765625
1557394025642,,,-2.4827871322631836,,
1557394025703,0.12881262587106654,-3.066972494125366,-2.473210334777832,-9.117119789123535,
1557394025764,0.1545618895886157,-3.1076738834381104,,-9.14345645904541,
1557394025765,,,-2.4205379486083984,,
1557394025822,,-3.0837318897247314,,-9.102754592895508,1000.126708984375
1557394025823,0.11340185848152098,,-2.456450939178467,,
1557394025977,0.14155873275737801,-3.071760892868042,-2.454056739807129,-9.136273384094238,
1557394026008,0.14896669920079258,-3.0813376903533936,-2.4803929328918457,-9.133879661560059,1000.106689453125
1557394026062,0.15111170096012985,-3.071760892868042,-2.456450939178467,-9.14585018157959,
1557394026122,,-3.098097085952759,,-9.126696586608887,
1557394026123,0.13982453613842025,,-2.456450939178467,,
1557394026182,,-3.090914487838745,,-9.131484985351562,1000.1083984375
1557394026183,0.14184725263212133,,-2.456450939178467,,
1557394026242,0.12369958391237167,-3.0813376903533936,-2.4468741416931152,-9.117119789123535,
1557394026305,0.1401455241769759,-3.064578056335449,-2.470816135406494,-9.131484985351562,
1557394026364,,,,-9.124302864074707,
1557394026365,0.13239172589463274,-3.069366693496704,-2.4660277366638184,,1000.100341796875
1557394026425,0.1260834469657095,-3.1004912853240967,-2.456450939178467,-9.10993766784668,
1557394026488,0.15628375642441297,-3.114856481552124,-2.410961151123047,-9.141061782836914,
1557394026668,0.1437270109826226,-3.0765492916107178,,-9.136273384094238,1000.102294921875
1557394026669,,,-2.4612393379211426,,
1557394026672,0.13621443650718443,-3.0861260890960693,-2.4468741416931152,-9.129091262817383,
1557394026727,0.14630770519935488,-3.1076738834381104,-2.43011474609375,-9.133879661560059,1000.1044921875
1557394026787,0.13009573041208924,-3.066972494125366,-2.4588451385498047,-9.124302864074707,
1557394026848,0.12139680073270098,-3.071760892868042,-2.47560453414917,-9.107542991638184,
1557394026909,0.13611613709213552,-3.0885202884674072,-2.47560453414917,-9.119514465332031,1000.108154296875
1557394026969,,,,-9.138668060302734,
1557394026970,0.14888530243619424,-3.1028854846954346,-2.425326347351074,,
1557394027030,,,,-9.138668060302734,
1557394027032,0.1498520049028015,-3.0550012588500977,-2.4827871322631836,,
1557394027091,0.12210022369135035,-3.1052796840667725,,-9.093177795410156,1000.103759765625
1557394027092,,,-2.477998733520508,,
1557394027151,0.1360167327257303,-3.0861260890960693,-2.477998733520508,-9.119514465332031,
1557394032720,0.13186226334692988,-3.0621838569641113,-2.432508945465088,-9.131484985351562,1000.103271484375
1557394032759,0.15162893859507579,-3.0789434909820557,-2.4396915435791016,-9.148244857788086,
1557394032817,0.14687725785731684,-3.1052796840667725,-2.4444799423217773,-9.133879661560059,
1557394032877,0.11063886899003099,-3.071760892868042,-2.4827871322631836,-9.090784072875977,1000.10546875
1557394032938,,,,-9.131484985351562,
1557394032939,0.14470539684713907,-3.0813376903533936,-2.47560453414917,,
1557394033000,0.1401487405119702,-3.1028854846954346,,-9.129091262817383,
1557394033001,,,-2.425326347351074,,
1557394033061,,-3.093308687210083,,-9.138668060302734,1000.115478515625
1557394033062,0.14869833916661443,,-2.454056739807129,,
1557394033121,,,,-9.102754592895508,
1557394033122,0.13490834488036382,-3.1028854846954346,-2.492363929748535,,
1557394033181,0.1255955812539501,-3.093308687210083,,-9.117119789123535,
1557394033182,,,-2.43011474609375,,
1557394033242,,-3.071760892868042,,-9.136273384094238,1000.11279296875
1557394033243,0.14727239365541916,,-2.47560453414917,,
1557394033301,,,,-9.129091262817383,
1557394033302,0.149160444142732,-3.1004912853240967,-2.477998733520508,,
1557394033362,0.1460056301817053,-3.0789434909820557,,-9.141061782836914,
1557394033363,,,-2.4468741416931152,,
1557394033423,0.13866974600648593,-3.0861260890960693,-2.473210334777832,-9.124302864074707,1000.10302734375
1557394033482,,,,-9.114726066589355,
1557394033483,0.13301298492726113,-3.069366693496704,-2.4899697303771973,,
1557394033543,,,,-9.129091262817383,
1557394033544,0.13547187071200953,-3.0837318897247314,-2.4444799423217773,,
1557394033604,0.12830102331377047,-3.090914487838745,-2.4899697303771973,-9.102754592895508,1000.107421875
1557394040718,,,,-9.10993766784668,
1557394040719,0.13443465294920173,-3.1052796840667725,-2.477998733520508,-9.141061782836914,1000.142822265625
1557394040768,,-3.098097085952759,,-9.105149269104004,
1557394040769,0.1247060418743178,,-2.470816135406494,,
1557394040829,0.13690839965254167,-3.0813376903533936,-2.3989901542663574,-9.129091262817383,
1557394040889,0.1342171898397023,-3.093308687210083,-2.4468741416931152,-9.124302864074707,1000.15234375
1557394040949,0.1553719046407911,-3.1076738834381104,-2.4827871322631836,-9.131484985351562,
1557394041009,0.1443782718502391,-3.098097085952759,-2.473210334777832,-9.126696586608887,
1557394041070,0.1419025838920621,-3.0861260890960693,-2.451662540435791,-9.133879661560059,1000.139892578125
1557394041131,0.12543412906667573,-3.071760892868042,-2.454056739807129,-9.119514465332031,
1557394041191,0.13935243139452144,-3.093308687210083,-2.4612393379211426,-9.126696586608887,
1557394041254,0.12811113550023578,-3.0789434909820557,-2.473210334777832,-9.114726066589355,1000.134521484375
1557394041313,0.1677019750878566,-3.1196448802948,-2.4420857429504395,-9.150638580322266,
