timestamp,LinearAccelerometerSensor,AccX,AccY,AccZ,BarometerSensor
1557415658586,0.11719542714963907,0.524330198764801,6.852205276489258,6.830657482147217,999.479736328125
1557415658741,0.0439372359907343,,,,
1557415658742,0.3938158744627481,0.6631938815116882,6.811503887176514,6.962338447570801,
1557415658747,,,,,999.31689453125
1557415658774,0.7057595803627059,0.8954314589500427,6.698976516723633,6.303933143615723,
1557415658840,0.7267584587736058,1.0223240852355957,,,
1557415658841,,,6.327875137329102,6.588842868804932,
1557415658890,0.523365869887522,1.5682021379470825,,,
1557415658891,,,5.851428985595703,8.068459510803223,
1557415658940,,,,,999.13232421875
1557415658957,1.1679668617871182,1.292868971824646,4.0533833503723145,8.145073890686035,
1557415659011,1.117087299681844,0.8092401623725891,5.152322292327881,9.490615844726562,
1557415659075,1.398250119745886,1.4101848602294922,4.637568473815918,9.971850395202637,
1557415659124,,,,,999.086669921875
1557415659129,1.2691660194286785,-0.42856210470199585,,,
1557415659130,,,3.73016619682312,8.497021675109863,
1557415659190,1.720959855324614,-0.002394201699644327,4.692635536193848,6.92881965637207,
1557415659250,0.684948390979577,0.9720458984375,4.596867084503174,8.360552787780762,
1557415659293,,,,,999.08349609375
1557415659318,0.8655882169985378,0.7469909191131592,5.360617637634277,7.307103633880615,
1557415659381,2.1432474598310542,3.1531636714935303,,,
1557415659382,,,5.219359874725342,8.698134422302246,
1557415659437,0.44449277352615346,,,,
1557415659438,,1.1180921792984009,,,
1557415659439,,,5.9304375648498535,7.465120792388916,
1557415659474,,,,,999.0810546875
1557415659501,1.9318711747841557,-0.6248866319656372,6.619967937469482,6.2847795486450195,
1557415659554,1.781810270837728,,,,
1557415659556,,2.7916390895843506,6.9024834632873535,8.33182144165039,
1557415659618,1.795615907799406,3.2130186557769775,5.858611583709717,8.341399192810059,
1557415659655,,,,,999.0595703125
1557415659675,1.2224908783929254,,,,
1557415659676,,4.4532151222229,6.708553314208984,5.193023681640625,
1557415659736,2.8332079317353753,,,,
1557415659737,,4.264073371887207,6.799532890319824,1.8698714971542358,
1557415659800,2.4045779871899082,4.323928356170654,5.4013190269470215,2.652775526046753,
1557415659838,,,,,999.04296875
1557415659859,6.0327219377550865,2.27209734916687,2.5258827209472656,3.047818660736084,
1557415659918,8.6914080056178,3.7469255924224854,-2.0805611610412598,2.449268341064453,
1557415659980,3.5784618768818643,7.072471618652344,,-2.360682964324951,
1557415659981,,,2.0446481704711914,,
1557415660020,,,,,999.038330078125
1557415660039,5.5361993919913814,10.125079154968262,5.901707172393799,2.6192567348480225,
1557415660100,6.535064897280663,,,,
1557415660102,,13.589488983154297,5.415684223175049,0.6368576288223267,
1557415660160,7.9681032404511605,16.04115104675293,,-5.70777702331543,
1557415660161,,,3.9169139862060547,,
1557415660200,,,,,999.0087890625
1557415660246,4.355504440366662,13.208810806274414,1.1635819673538208,-3.268085241317749,
1557415660282,6.639373158660493,,,,
1557415660283,,10.481815338134766,2.300827741622925,-11.398794174194336,
1557415660341,7.439491325955347,1.7190368175506592,-1.3694833517074585,-11.623848915100098,
1557415660380,,,,,999.013916015625
1557415660401,1.5028910591659081,5.3582234382629395,2.0661959648132324,-6.430825710296631,
1557415660461,2.3851347066716646,5.12119722366333,4.37420654296875,-10.089165687561035,
1557415660527,0.8783266317943118,,,,
1557415660528,,3.734954595565796,4.458003520965576,-8.209717750549316,
1557415660563,,,,,999.037109375
1557415660583,0.555622065721966,3.7038300037384033,4.594472885131836,-7.915230751037598,
1557415660642,2.954124806210209,,,,
1557415660643,,2.7533318996429443,2.0877439975738525,-8.159439086914062,
1557415660703,2.4026224114297063,,,,
1557415660704,,4.867412090301514,2.209848165512085,-8.276755332946777,
1557415660744,,,,,999.08447265625
1557415660765,0.8233549101958497,4.656722068786621,5.566518783569336,-7.474697589874268,
1557415660823,2.3448544760897394,3.0573954582214355,,-9.232041358947754,
1557415660824,,,3.691859006881714,,
1557415660884,0.7992428027399612,,,,
1557415660885,,4.266467571258545,5.066130638122559,-6.509834289550781,
1557415660925,,,,,999.130126953125
1557415660945,2.0832811221891836,,,,
1557415660946,,4.917690277099609,6.648698329925537,-5.839457988739014,
1557415661006,6.068921336025153,3.9408559799194336,,,
1557415661007,,,11.374852180480957,-6.095637321472168,
1557415661068,5.567439254477315,0.2082955539226532,,,
1557415661069,,,4.170699596405029,-2.6024973392486572,
1557415661110,,,,,999.1298828125
1557415661128,1.0034063853688164,2.7269957065582275,,-5.521028995513916,
1557415661129,,,6.517016887664795,,
1557415661187,2.249106335654682,,,,
1557415661188,,4.726154327392578,8.81784439086914,-6.538564682006836,
1557415661247,2.835720421755955,,,,
1557415661248,,3.5889084339141846,7.223306655883789,-9.581595420837402,
1557415661287,,,,,999.2275390625
1557415661307,0.8863829594508804,3.337517261505127,,-6.423643112182617,
1557415661308,,,5.65031623840332,,
1557415661369,3.342516805396848,-0.043095629662275314,7.283161640167236,-8.374917984008789,
1557415661429,4.13232188206133,,,,
1557415661430,,5.288791656494141,1.8698714971542358,-4.6040496826171875,
1557415661469,,,,,999.232666015625
1557415661489,2.796796573839337,,,,
1557415661490,,3.974374771118164,4.970362663269043,-9.758766174316406,
1557415661550,2.9607392498872227,,,,
1557415661551,,8.008605003356934,4.81473970413208,-6.117185115814209,
1557415661611,2.038483870097446,7.161057472229004,2.31758713722229,-6.995857238769531,
1557415661650,,,,,999.1806640625
1557415661671,4.161061420378824,7.319074630737305,7.275979042053223,-6.557718276977539,
1557415661730,0.8727782858245372,,,,
1557415661731,,5.679046630859375,2.9759926795959473,-6.464344501495361,
1557415661793,0.7794040233405434,5.535394191741943,,-6.275202751159668,
1557415661794,,,3.4308910369873047,,
1557415661831,,,,,999.10400390625
1557415661851,2.603803614422887,7.204153060913086,1.1276689767837524,-6.584054470062256,
1557415661910,5.292805506592438,,,,
1557415661911,,3.7612907886505127,-2.363077163696289,-7.8529815673828125,
1557415661972,1.6873140585853614,4.2329487800598145,4.177882194519043,-7.163451671600342,
1557415662011,,,,,999.052001953125
1557415662031,1.821622778051748,,,,
1557415662032,,6.495469093322754,1.4652514457702637,-7.208941459655762,
1557415662092,2.292444744380195,5.360617637634277,5.319916248321533,-7.343016624450684,
1557415662153,1.6104342483935965,,,,
1557415662154,,7.266402244567871,1.9273324012756348,-7.709329605102539,
1557415662193,,,,,999.021728515625
1557415662213,0.7854509701982602,5.810727596282959,,-8.372523307800293,
1557415662214,,,2.346317768096924,,
1557415662274,1.054798883278682,6.1052141189575195,0.7829039692878723,-8.157045364379883,
1557415662334,0.597807671806113,5.793968200683594,1.7956513166427612,-7.60637903213501,
1557415662373,,,,,999.062744140625
1557415662394,0.5799289858440041,6.088454723358154,1.6615760326385498,-7.7883381843566895,
1557415662454,0.19327157849821333,5.664681434631348,1.4413094520568848,-7.888894557952881,
1557415662514,0.8254421248755194,,,,
1557415662515,,4.809951305389404,1.6304513216018677,-7.65186882019043,
1557415662554,,,,,999.039794921875
1557415662574,1.0161033677548301,,,,
1557415662576,,4.8051629066467285,1.479616641998291,-7.2352776527404785,
1557415662635,0.618514722346661,,,,
1557415662636,,5.863399982452393,2.1284453868865967,-7.845798969268799,
1557415662699,1.053562327061612,6.5050458908081055,,-7.82185697555542,
1557415662700,,,1.7621324062347412,,
1557415662739,,,,,999.00244140625
1557415662759,1.0904764505998028,5.875370979309082,2.5330653190612793,-7.275979042053223,
1557415662818,1.0003002431274106,5.681440830230713,1.3192051649093628,-8.65982723236084,
1557415662879,0.5277672938789083,4.692635536193848,1.9967641830444336,-8.056488990783691,
1557415662918,,,,,999.005615234375
1557415662939,1.8547644633752312,5.51624059677124,,,
1557415662940,,,2.032677173614502,-9.911994934082031,
1557415663000,1.048018044989783,5.427655220031738,2.073378562927246,-9.121908187866211,
1557415663060,0.3632055634441152,5.03021764755249,,-8.161833763122559,
1557415663061,,,2.27209734916687,,
1557415663099,,,,,999.074951171875
1557415663119,0.5441070261466026,5.904101371765137,,,
1557415663120,,,2.434903144836426,-7.592013359069824,
1557415663179,1.0488817709162228,5.954379558563232,2.674323320388794,-8.59997272491455,
1557415663242,0.6294367430554276,5.363011837005615,2.9065608978271484,-7.716512203216553,
1557415663280,,,,,999.09423828125
1557415663428,2.855535712546324,4.240131378173828,,,
1557415663429,,,0.24899697303771973,-6.2632317543029785,
1557415663430,1.0938271086623856,5.530605792999268,3.222595453262329,-8.504204750061035,
1557415663462,,,,,999.12890625
1557415663483,2.4754991625262597,6.335057735443115,3.0813376903533936,-9.962273597717285,
1557415663543,5.498408694244664,,,,
1557415663544,,2.499546527862549,-0.8523358106613159,-4.108449935913086,
1557415663604,1.4784843411279165,3.60566782951355,0.026336219161748886,-9.883264541625977,
1557415663645,,,,,999.025146484375
1557415663666,2.7958389153308736,1.8507179021835327,1.7190368175506592,-7.026981830596924,
1557415663727,3.8764729315340274,0.11971008777618408,0.730231523513794,-6.27280855178833,
1557415663790,5.164894948742226,-2.2577321529388428,0.14604631066322327,-12.380416870117188,
1557415663830,,,,,998.972412109375
1557415663849,2.9722531179404847,3.7253777980804443,0.3423708379268646,-7.568071365356445,
1557415663911,3.189057362396722,0.26096799969673157,3.6822822093963623,-9.713275909423828,
1557415663973,4.743250016110476,4.685452938079834,-3.114856481552124,-8.99740982055664,
1557415664013,,,,,999.02685546875
1557415664034,3.742845704363834,,,,
1557415664035,,-1.2234370708465576,-2.449268341064453,-10.654197692871094,
1557415664098,1.3914602535847775,2.9089550971984863,0.13168109953403473,-10.225635528564453,
1557415664157,2.898612867946932,2.1332337856292725,,,
1557415664158,,,-0.9959878921508789,-6.993463039398193,
1557415664196,,,,,999.039306640625
1557415664217,4.535840465047821,,,,
1557415664218,,2.0901381969451904,4.381389141082764,-11.863269805908203,
1557415664277,2.2383183181649158,4.888959884643555,,,
1557415664278,,,0.07900865375995636,-10.168174743652344,
1557415674020,1.2246036316464701,3.77565598487854,1.4077905416488647,-8.288725852966309,999.01025390625
1557415674031,,,,,999.07177734375
1557415674047,1.796797841944804,,,,
1557415674048,,4.350264549255371,-0.5482721924781799,-8.664615631103516,
1557415674106,1.733184612141769,4.3861775398254395,-0.6607996821403503,-8.83939266204834,
1557415674167,1.6733650626382386,4.503493309020996,-0.646434485912323,-8.832210540771484,
1557415674206,,,,,999.084716796875
1557415674227,0.9395076870687538,4.5394062995910645,-0.6392518281936646,-8.80587387084961,
1557415674287,0.6174342471030393,4.455609321594238,-0.6033388376235962,-8.820239067077637,
1557415674347,0.43422481218288156,4.41969633102417,-0.5410895943641663,-8.80587387084961,
1557415674387,,,,,999.078857421875
1557415674408,0.3594231987849083,4.398148536682129,-0.5841852426528931,-8.846575736999512,
1557415674468,0.34855370999902113,4.3861775398254395,-0.6655880808830261,-8.798690795898438,
1557415674528,0.36310993790370527,,,,
1557415674529,,4.484339714050293,-0.6871358752250671,-8.777143478393555,
1557415674568,,,,,999.078369140625
1557415674588,0.2805471114240228,4.51067590713501,,-8.83699893951416,
1557415674589,,,-0.5937620401382446,,
1557415674648,0.22701489564887561,,,,
1557415674649,,4.469974517822266,-0.6033388376235962,-8.841787338256836,
1557415674709,0.20692289863949087,4.4532151222229,-0.6344634294509888,-8.779537200927734,
1557415674749,,,,,999.067626953125
1557415674768,0.10760928192455908,,,,
1557415674769,,4.37420654296875,-0.5913678407669067,-8.796297073364258,
1557415674830,0.19067800910458915,4.4532151222229,-0.6392518281936646,-8.846575736999512,
1557415674890,0.18545277869818705,4.486733913421631,-0.6009446382522583,-8.844181060791016,
1557415674929,,,,,999.065185546875
1557415674949,0.16775163768673854,4.484339714050293,-0.6177040338516235,-8.78432559967041,
1557415706014,0.16061523425439184,,,,
1557415706015,,4.4532151222229,-0.6607996821403503,-8.822632789611816,
1557415706028,0.1673499507984047,4.364629745483398,-0.7038952708244324,-8.846575736999512,
1557415706088,0.13549084343535286,4.352658748626709,-0.6823474764823914,-8.83699893951416,
1557415706128,,,,,999.06640625
1557415706148,0.1892720664909163,,,,
1557415706149,,4.343081951141357,-0.7469909191131592,-8.856152534484863,
1557415706209,0.1715145232304329,4.359841346740723,,-8.868123054504395,
1557415706271,0.14297460924451352,4.398148536682129,,,
1557415706272,,,-0.7086837291717529,-8.851364135742188,
1557415706310,,,,,999.064453125
1557415706330,0.14149415776994242,,,,
1557415706331,,4.369418144226074,-0.7182605266571045,-8.860940933227539,
1557415706389,0.13151820005542905,,,,
1557415706390,,4.364629745483398,-0.7206547260284424,-8.853757858276367,
1557415706451,0.0826978506132119,4.343081951141357,-0.6823474764823914,-8.832210540771484,
1557415706491,,,,,999.058837890625
1557415706511,0.090071394942714,4.376600742340088,,,
1557415706512,,,-0.7038952708244324,-8.813055992126465,
1557415706571,0.12051109142572343,4.3622355461120605,-0.7230489253997803,-8.853757858276367,
1557415706632,0.11909650548531436,4.367023944854736,-0.727837324142456,-8.851364135742188,
1557415706672,,,,,999.0654296875
1557415706692,0.10372005824844047,4.369418144226074,-0.7134721279144287,-8.846575736999512,
1557415706752,0.06827154307143948,4.355052947998047,-0.6871358752250671,-8.827422142028809,
1557415706813,0.10553455066235355,4.376600742340088,-0.7158663272857666,-8.848969459533691,
1557415706852,,,,,999.0625
1557415706872,0.11324207680924774,4.3622355461120605,-0.7206547260284424,-8.863334655761719,
1557415706932,0.05424704889843937,4.355052947998047,-0.6823474764823914,-8.81784439086914,
1557415706993,0.08943911321919176,4.3861775398254395,-0.6751648783683777,-8.844181060791016,
1557415707034,,,,,999.05908203125
1557415707054,0.07297850509923214,4.359841346740723,-0.6967126727104187,-8.832210540771484,
1557415707114,0.054393510278129484,4.333505153656006,-0.6943184733390808,-8.81784439086914,
1557415707175,0.08391967765447095,4.359841346740723,-0.7015010714530945,-8.844181060791016,
1557415707214,,,,,999.069580078125
1557415707234,0.1324398197404769,4.364629745483398,-0.727837324142456,-8.887276649475098,
1557415707294,0.09473115870543161,4.381389141082764,,-8.848969459533691,
1557415707295,,,-0.6991068720817566,,
1557415707355,0.0469927055016409,4.331110954284668,-0.7015010714530945,-8.810662269592285,
1557415707395,,,,,999.0712890625
1557415707415,0.10906581946024169,4.359841346740723,-0.7206547260284424,-8.868123054504395,
1557415707476,0.12345185694316665,4.359841346740723,-0.7134721279144287,-8.887276649475098,
1557415707536,0.07086780269811219,,,,
1557415707537,,4.359841346740723,-0.6727706789970398,-8.83699893951416,
1557415707576,,,,,999.078125
1557415707596,0.08058301003187278,4.326322555541992,-0.6871358752250671,-8.853757858276367,
1557415707656,0.06353599626939796,4.352658748626709,-0.6823474764823914,-8.832210540771484,
1557415707718,0.06591174131576599,4.331110954284668,-0.689530074596405,-8.83939266204834,
1557415707757,,,,,999.062744140625
1557415707778,0.08489775226429165,4.3406877517700195,-0.6991068720817566,-8.856152534484863,
1557415707839,0.08344883445751615,4.3406877517700195,-0.7110779285430908,-8.851364135742188,
1557415707898,0.11295041741479357,,,,
1557415707899,,4.357447147369385,-0.6967126727104187,-8.882488250732422,
1557415707939,,,,,999.0576171875
1557415707959,0.06741831714839154,4.323928356170654,-0.6799532771110535,-8.844181060791016,
1557415708019,0.0922028310603318,4.367023944854736,-0.7110779285430908,-8.851364135742188,
1557415708079,0.07350702722969032,4.333505153656006,,-8.848969459533691,
1557415708080,,,-0.6919242739677429,,
1557415708119,,,,,999.060791015625
1557415708139,0.07995807557791697,4.331110954284668,-0.7182605266571045,-8.848969459533691,
1557415708199,0.09154516570277361,4.3406877517700195,-0.6991068720817566,-8.865729331970215,
1557415708259,0.07109906732145982,4.335899353027344,-0.6943184733390808,-8.846575736999512,
1557415708299,,,,,999.059326171875
1557415708319,0.08708651717463511,4.364629745483398,-0.6655880808830261,-8.848969459533691,
1557415708380,0.09317485898715752,4.338293552398682,-0.7182605266571045,-8.863334655761719,
1557415708440,0.08963275576961839,4.3406877517700195,-0.7134721279144287,-8.860940933227539,
1557415708480,,,,,999.051025390625
1557415708500,0.0752983100025709,4.3406877517700195,-0.6727706789970398,-8.848969459533691,
1557415708561,0.06900007542315797,4.352658748626709,-0.6799532771110535,-8.83699893951416,
1557415708621,0.11075311368026927,4.3622355461120605,-0.706289529800415,-8.877699851989746,
1557415708662,,,,,999.050537109375
1557415708681,0.09368784155156719,4.345476150512695,-0.7158663272857666,-8.863334655761719,
1557415708743,0.037147677882116675,4.343081951141357,-0.6847416758537292,-8.803479194641113,
1557415708806,0.11383550801941293,4.371812343597412,-0.7110779285430908,-8.875306129455566,
1557415708845,,,,,999.048583984375
1557415708865,0.08055595272333291,4.350264549255371,-0.7086837291717529,-8.848969459533691,
1557415708925,0.06949046873140355,4.345476150512695,-0.689530074596405,-8.841787338256836,
1557415708985,0.09282870904911797,4.347870349884033,-0.7110779285430908,-8.863334655761719,
1557415709026,,,,,999.054443359375
1557415709046,0.10474842063969567,,,,
1557415709047,,4.376600742340088,-0.7206547260284424,-8.858546257019043,
1557415709106,0.06964228342395483,,,,
1557415709107,,4.338293552398682,-0.6991068720817566,-8.844181060791016,
1557415709167,0.07471414606958578,,,,
1557415709168,,4.333505153656006,-0.6871358752250671,-8.851364135742188,
1557415709207,,,,,999.05078125
1557415709228,0.09705726988764625,,,,
1557415709229,,4.331110954284668,-0.7110779285430908,-8.87291145324707,
1557415709288,0.08396549067987855,4.355052947998047,,,
1557415709289,,,-0.706289529800415,-8.851364135742188,
1557415709349,0.09865999319402365,4.323928356170654,,,
1557415709350,,,-0.7015010714530945,-8.877699851989746,
1557415709389,,,,,999.044921875
1557415709409,0.08366410323076204,4.347870349884033,-0.6919242739677429,-8.856152534484863,
1557415709470,0.04199372887554793,4.32871675491333,-0.7015010714530945,-8.81784439086914,
1557415709530,0.09575056340572245,4.333505153656006,-0.706289529800415,-8.87291145324707,
1557415709570,,,,,999.049072265625
1557415709590,0.09196784452633583,4.343081951141357,-0.7254431247711182,-8.860940933227539,
1557415709650,0.0709571853759923,4.350264549255371,-0.6847416758537292,-8.83939266204834,
1557415709713,0.07849935308439669,,,,
1557415709714,,4.32871675491333,-0.6775590777397156,-8.856152534484863,
1557415709755,,,,,999.05615234375
1557415709774,0.10825536496262196,,,,
1557415709775,,4.359841346740723,-0.7134721279144287,-8.875306129455566,
1557415709835,0.09832020121141091,,,,
1557415709836,,4.352658748626709,-0.7110779285430908,-8.868123054504395,
1557415709895,0.09981293541557108,4.371812343597412,-0.7086837291717529,-8.858546257019043,
1557415709936,,,,,999.063232421875
1557415709955,0.12895557153586443,,,,
1557415709956,,4.367023944854736,-0.727837324142456,-8.892065048217773,
1557415710015,0.08114293476558462,,,,
1557415710016,,4.3191399574279785,-0.6823474764823914,-8.860940933227539,
1557415710076,0.08526028317594632,4.367023944854736,-0.6823474764823914,-8.844181060791016,
1557415710116,,,,,999.06396484375
1557415710136,0.09355640290346125,4.359841346740723,-0.7206547260284424,-8.856152534484863,
1557415710195,0.08315322425047446,,,,
1557415710196,,4.343081951141357,-0.7086837291717529,-8.856152534484863,
1557415710256,0.07647418589907666,4.345476150512695,-0.6991068720817566,-8.848969459533691,
1557415710296,,,,,999.079833984375
1557415710316,0.12174825909890499,4.369418144226074,-0.727837324142456,-8.882488250732422,
1557415710376,0.10358841154459968,4.369418144226074,-0.7326257228851318,-8.858546257019043,
1557415710438,0.10277396951187565,4.359841346740723,-0.7350199222564697,-8.863334655761719,
1557415710477,,,,,999.078857421875
1557415710498,0.05814291244459926,4.331110954284668,-0.7038952708244324,-8.834604263305664,
1557415710559,0.16023394398140745,4.388571739196777,-0.7254431247711182,-8.918401718139648,
1557415710619,0.09134912356310901,4.364629745483398,-0.730231523513794,-8.848969459533691,
1557415710658,,,,,999.0927734375
1557415710678,0.08860397133572848,4.352658748626709,-0.6991068720817566,-8.858546257019043,
1557415710738,0.09099727740380738,4.359841346740723,-0.7254431247711182,-8.853757858276367,
1557415710799,0.09413905676647483,4.369418144226074,-0.7158663272857666,-8.853757858276367,
1557415710838,,,,,999.083740234375
1557415710858,0.08451677559397157,,,,
1557415710859,,4.359841346740723,-0.667982280254364,-8.841787338256836,
1557415710918,0.10193092206738123,,,,
1557415710919,,4.376600742340088,-0.7326257228851318,-8.853757858276367,
1557415710979,0.10831538876672586,4.364629745483398,-0.730231523513794,-8.87051773071289,
1557415711021,,,,,999.08349609375
1557415713015,0.09618184966816894,,,,
1557415713016,0.06712941886255518,4.359841346740723,-0.706289529800415,-8.863334655761719,
1557415713019,,,,,999.073486328125
1557415713037,0.08344992258965843,4.331110954284668,-0.6847416758537292,-8.858546257019043,
1557415713095,0.10303102278807291,,,,
1557415713096,,4.364629745483398,-0.7110779285430908,-8.868123054504395,
1557415713156,0.07868472697035611,4.352658748626709,-0.6775590777397156,-8.844181060791016,
1557415713196,,,,,999.070068359375
1557415713216,0.09267315715133743,4.335899353027344,-0.6871358752250671,-8.868123054504395,
1557415713276,0.11338753482602333,4.321534156799316,-0.706289529800415,-8.892065048217773,
1557415713336,0.06347356569111803,4.326322555541992,-0.6943184733390808,-8.841787338256836,
1557415713376,,,,,999.074462890625
1557415713397,0.07743669930930058,,,,
1557415713398,,4.333505153656006,-0.6847416758537292,-8.853757858276367,
1557415713459,0.07669387974624346,4.333505153656006,-0.6751648783683777,-8.851364135742188,
1557415713520,0.0681019500029089,4.32871675491333,-0.7398083209991455,-8.829815864562988,
1557415713559,,,,,999.08349609375
1557415713579,0.07707562813502895,4.323928356170654,-0.6727706789970398,-8.853757858276367,
1557415713639,0.06069935548829425,4.338293552398682,-0.7015010714530945,-8.834604263305664,
1557415713699,0.13581691030037785,4.3622355461120605,-0.8044517636299133,-8.848969459533691,
1557415713739,,,,,999.087158203125
1557415713760,0.0736073988914631,4.398148536682129,-0.6847416758537292,-8.798690795898438,
1557415713821,0.11848047548090114,4.323928356170654,-0.5817909836769104,-8.769960403442383,
1557415713881,0.18272791274942413,4.393360137939453,-0.7230489253997803,-8.939949035644531,
1557415713921,,,,,999.091064453125
1557415713942,0.06410905001588398,,,,
1557415713943,,4.369418144226074,-0.6631938815116882,-8.813055992126465,
1557415714001,0.07131688672367896,4.388571739196777,,-8.81784439086914,
1557415714002,,,-0.7206547260284424,,
1557415714062,0.1400844330226337,4.479551315307617,-0.7541735172271729,-8.791508674621582,
1557415714101,,,,,999.091064453125
1557415714122,0.11721509767454566,4.400542736053467,-0.8164227604866028,-8.80587387084961,
1557415714182,0.10760913479510789,4.259284973144531,-0.706289529800415,-8.832210540771484,
1557415714242,0.08634382338215281,4.261679172515869,-0.6871358752250671,-8.736441612243652,
1557415714282,,,,,999.087890625
1557415714301,0.08977847215701597,,,,
1557415714302,,4.398148536682129,-0.7086837291717529,-8.834604263305664,
1557415714361,0.14792190904013505,,,,
1557415714362,,4.458003520965576,-0.7206547260284424,-8.860940933227539,
1557415714422,0.07241450580379334,4.417302131652832,-0.730231523513794,-8.789113998413086,
1557415714461,,,,,999.092529296875
1557415714481,0.06125014398154054,4.390965938568115,,,
1557415714482,,,-0.7326257228851318,-8.801085472106934,
1557415714541,0.03213321285893401,,,,
1557415714542,,4.32871675491333,-0.7038952708244324,-8.78432559967041,
1557415714602,0.11606082918626347,4.37420654296875,-0.6320692300796509,-8.851364135742188,
1557415714642,,,,,999.09521484375
1557415714662,0.07508001839674652,,,,
1557415714663,,4.422090530395508,-0.7158663272857666,-8.789113998413086,
1557415714722,0.07681949117534344,,,,
1557415714723,,4.422090530395508,-0.7326257228851318,-8.722076416015625,
1557415714783,0.10285532634062157,4.390965938568115,-0.768538773059845,-8.832210540771484,
1557415714824,,,,,999.09375
1557415714843,0.05020425898609569,,,,
1557415714844,,4.378994941711426,-0.7182605266571045,-8.801085472106934,
1557415714904,0.08788478355069274,4.2760443687438965,-0.7445967197418213,-8.796297073364258,
1557415714964,0.3253858311770552,4.486733913421631,-0.5147533416748047,-8.978256225585938,
1557415715005,,,,,999.09375
1557415715024,0.11331282783914304,4.302380561828613,,-8.65743350982666,
1557415715025,,,-0.7134721279144287,,
1557415715085,0.24860724282466734,4.469974517822266,-0.7158663272857666,-8.978256225585938,
1557415715145,0.13732489007214158,4.474762916564941,-0.7757213711738586,-8.789113998413086,
1557415715185,,,,,999.091064453125
1557415715205,0.040489838664974444,4.393360137939453,-0.6991068720817566,-8.743624687194824,
1557415715265,0.0675601663872384,4.307168960571289,-0.7086837291717529,-8.815450668334961,
1557415715325,0.08134986947702137,4.264073371887207,-0.7015010714530945,-8.779537200927734,
1557415715365,,,,,999.08935546875
1557415715385,0.16656231904333135,4.235342979431152,-0.6033388376235962,-8.860940933227539,
1557415715446,0.08046617052425256,4.388571739196777,-0.7015010714530945,-8.827422142028809,
1557415715507,0.0983958608495157,4.4077253341674805,-0.7805097699165344,-8.786720275878906,
1557415715547,,,,,999.107177734375
1557415715568,0.13568899772912124,4.443638324737549,-0.7733271718025208,-8.841787338256836,
1557415715628,0.04488671263854981,4.376600742340088,-0.751779317855835,-8.772355079650879,
1557415715688,0.07010188613165598,,,,
1557415715689,,4.285621166229248,-0.6967126727104187,-8.803479194641113,
1557415715728,,,,,999.102294921875
1557415715748,0.06732765303535083,4.280832767486572,-0.7206547260284424,-8.808267593383789,
1557415715808,0.11661607182387473,4.3191399574279785,-0.6919242739677429,-8.882488250732422,
1557415715868,0.053953818051913245,4.383783340454102,,-8.791508674621582,
1557415715869,,,-0.6847416758537292,,
1557415715908,,,,,999.103515625
1557415715928,0.16961819818636692,4.489128112792969,-0.7972691655158997,-8.815450668334961,
1557415715988,0.09998156630965657,4.398148536682129,-0.7469909191131592,-8.841787338256836,
1557415716050,0.08733043429685747,4.3191399574279785,,,
1557415716051,,,-0.7182605266571045,-8.846575736999512,
1557415716091,,,,,999.103515625
1557415716111,0.08700267153884453,4.252102375030518,-0.6991068720817566,-8.779537200927734,
1557415716172,0.07845053204527125,4.343081951141357,-0.7206547260284424,-8.844181060791016,
1557415716232,0.05053584931134169,4.345476150512695,-0.7469909191131592,-8.803479194641113,
1557415716272,,,,,999.109619140625
1557415716292,0.15556996898798062,4.441244125366211,-0.7613561153411865,-8.875306129455566,
1557415716352,0.06876652245411562,4.405331134796143,-0.7422025203704834,-8.772355079650879,
1557415716413,0.13107256817108823,,,,
1557415716414,,4.299986362457275,-0.6775590777397156,-8.889671325683594,
1557415716452,,,,,999.10888671875
1557415716472,0.12165541521585077,4.280832767486572,-0.7206547260284424,-8.882488250732422,
1557415716533,0.0966330088048189,4.388571739196777,-0.7781155705451965,-8.738836288452148,
1557415716593,0.13675506654416208,,,,
1557415716594,,4.422090530395508,-0.6871358752250671,-8.87051773071289,
1557415716633,,,,,999.109130859375
1557415716653,0.08266609764207714,4.338293552398682,-0.7015010714530945,-8.851364135742188,
1557415716713,0.07378814664386424,4.288015365600586,-0.7350199222564697,-8.827422142028809,
1557415716774,0.07905293076451336,,,,
1557415716775,,4.314351558685303,-0.7254431247711182,-8.848969459533691,
1557415716814,,,,,999.092529296875
1557415716834,0.06826351801911752,,,,
1557415716835,,4.393360137939453,-0.7158663272857666,-8.786720275878906,
1557415716896,0.13623364762729917,,,,
1557415716897,,4.398148536682129,-0.7613561153411865,-8.877699851989746,
1557415716957,0.14931049996390183,4.378994941711426,-0.7182605266571045,-8.911218643188477,
1557415716996,,,,,999.0947265625
1557415717017,0.02284635026901763,4.307168960571289,-0.7254431247711182,-8.767566680908203,
1557415717077,0.11161148250180979,4.2951979637146,-0.7493851184844971,-8.875306129455566,
1557415717138,0.08848430081815202,4.3191399574279785,-0.6823474764823914,-8.856152534484863,
1557415717177,,,,,999.093505859375
1557415717197,0.0631773056721896,4.345476150512695,-0.751779317855835,-8.820239067077637,
1557415717257,0.07430266981460747,4.3406877517700195,-0.7422025203704834,-8.841787338256836,
1557415717317,0.12532525661159918,4.402936935424805,-0.7829039692878723,-8.846575736999512,
1557415717357,,,,,999.091064453125
1557415717377,0.03231975417983875,4.323928356170654,-0.7445967197418213,-8.796297073364258,
1557415717437,0.09368899963577072,4.367023944854736,-0.7398083209991455,-8.853757858276367,
1557415717497,0.09331857236546738,4.378994941711426,-0.7469909191131592,-8.844181060791016,
1557415717537,,,,,999.088623046875
1557415717556,0.07298425397411676,,,,
1557415717557,,4.333505153656006,-0.730231523513794,-8.844181060791016,
1557415717616,0.09040780369089108,4.3622355461120605,,-8.853757858276367,
1557415717617,,,-0.7206547260284424,,
1557415717677,0.07707087323719022,4.367023944854736,-0.768538773059845,-8.820239067077637,
1557415717717,,,,,999.082275390625
1557415717739,0.1072736671389177,4.355052947998047,,-8.846575736999512,
1557415717740,,,-0.6536170840263367,,
1557415717799,0.05956672047901093,4.333505153656006,,-8.829815864562988,
1557415717800,,,-0.7350199222564697,,
1557415717860,0.06688992630638875,4.316745758056641,-0.6607996821403503,-8.803479194641113,
1557415717899,,,,,999.0849609375
1557415717919,0.18740632777031943,4.436455726623535,,,
1557415717920,,,-0.727837324142456,-8.923190116882324,
1557415717980,0.07810611794696307,4.256890773773193,,,
1557415717981,,,-0.6919242739677429,-8.796297073364258,
1557415720014,0.13473688731416547,4.422090530395508,,,
1557415720015,,4.4292731285095215,-0.7876923680305481,-8.841787338256836,999.084228515625
1557415720030,0.10273770210912495,4.414907932281494,,-8.827422142028809,
1557415720031,,,-0.7445967197418213,,
1557415720070,,,,,999.0634765625
1557415720090,0.08711145253120295,4.290409564971924,-0.730231523513794,-8.69095230102539,
1557415720149,0.04272249216555864,,,,
1557415720150,,4.32871675491333,-0.7637503147125244,-8.798690795898438,
1557415720212,0.19359052693883733,4.376600742340088,-0.7948749661445618,-8.944737434387207,
1557415720251,,,,,999.068359375
1557415720271,0.1387490071441594,4.314351558685303,-0.6751648783683777,-8.89685344696045,
1557415720330,0.09274466218909157,4.378994941711426,-0.7637503147125244,-8.83939266204834,
1557415720391,0.01802915440943106,4.335899353027344,-0.7493851184844971,-8.777143478393555,
1557415720430,,,,,999.080078125
1557415720450,0.09094913636803383,4.388571739196777,,,
1557415720451,,,-0.7829039692878723,-8.820239067077637,
1557415720511,0.0898150833670207,4.347870349884033,-0.7661445140838623,-8.851364135742188,
1557415720571,0.08484988518393413,4.381389141082764,-0.7110779285430908,-8.829815864562988,
1557415720610,,,,,999.08935546875
1557415720630,0.04313605152672192,4.316745758056641,,,
1557415720631,,,-0.7038952708244324,-8.743624687194824,
1557415720691,0.13140499182426496,4.364629745483398,-0.7805097699165344,-8.887276649475098,
1557415720751,0.0547282458828591,4.350264549255371,-0.7852981686592102,-8.789113998413086,
1557415720790,,,,,999.08642578125
1557415720810,0.07167423393853345,,,,
1557415720811,,4.381389141082764,-0.7422025203704834,-8.81784439086914,
1557415720871,0.04731810027199686,,,,
1557415720872,,4.357447147369385,-0.7015010714530945,-8.779537200927734,
1557415720931,0.05460682308049228,4.290409564971924,,-8.793902397155762,
1557415720932,,,-0.7661445140838623,,
1557415720973,,,,,999.09423828125
1557415720995,0.06102168506733021,4.335899353027344,-0.7254431247711182,-8.827422142028809,
1557415721054,0.06349256753884046,,,,
1557415721055,,4.37420654296875,-0.7589619159698486,-8.808267593383789,
1557415721114,0.017209955029566956,4.3406877517700195,,-8.772355079650879,
1557415721115,,,-0.751779317855835,,
1557415721155,,,,,999.099853515625
1557415721174,0.03453592554108682,,,,
1557415721175,,4.345476150512695,-0.751779317855835,-8.796297073364258,
1557415721235,0.062236298498688045,4.333505153656006,-0.8044517636299133,-8.774748802185059,
1557415721297,0.10047060641446895,4.307168960571289,-0.6847416758537292,-8.848969459533691,
1557415721337,,,,,999.099609375
1557415721357,0.11154065425143424,4.393360137939453,-0.8140285611152649,-8.825027465820312,
1557415721418,0.16909073761297855,4.242525577545166,,-8.65743350982666,
1557415721419,,,-0.646434485912323,,
1557415721478,0.07063137702930472,,,,
1557415721479,,4.367023944854736,-0.7350199222564697,-8.827422142028809,
1557415721518,,,,,999.096435546875
1557415721538,0.1200621370221201,4.307168960571289,-0.727837324142456,-8.89445972442627,
1557415721600,0.05457295402176497,4.326322555541992,,-8.798690795898438,
1557415721601,,,-0.6799532771110535,,
1557415721662,0.02982904959977133,,,,
1557415721663,,4.352658748626709,-0.7326257228851318,-8.755595207214355,
1557415721701,,,,,999.089599609375
1557415721722,0.07458601293742831,,,,
1557415721723,,4.388571739196777,-0.7876923680305481,-8.769960403442383,
1557415721783,0.028390331282143418,,,,
1557415721784,,4.350264549255371,-0.7350199222564697,-8.789113998413086,
1557415721845,0.04278625128692648,4.316745758056641,-0.7541735172271729,-8.803479194641113,
1557415721885,,,,,999.0849609375
1557415721906,0.05521766794361038,4.285621166229248,-0.6991068720817566,-8.798690795898438,
1557415721966,0.018457122485878913,4.307168960571289,-0.7326257228851318,-8.779537200927734,
1557415722027,0.10373659211725722,4.376600742340088,-0.8212111592292786,-8.810662269592285,
1557415722065,,,,,999.079345703125
1557415722087,0.023184448337310395,4.347870349884033,-0.7254431247711182,-8.772355079650879,
1557415722147,0.042615899338384326,,,,
1557415722148,,4.331110954284668,-0.7254431247711182,-8.810662269592285,
1557415722208,0.06243659133352555,4.271255970001221,-0.7038952708244324,-8.760383605957031,
1557415722248,,,,,999.080810546875
1557415722268,0.09419980029378058,4.228160381317139,-0.751779317855835,-8.753201484680176,
1557415722329,0.10617650063370192,4.424484729766846,,,
1557415722330,,,-0.7158663272857666,-8.78193187713623,
1557415722389,0.039125399314519194,,,,
1557415722390,,4.338293552398682,-0.7134721279144287,-8.743624687194824,
1557415722429,,,,,999.072021484375
1557415722449,0.035407660822987255,4.302380561828613,-0.7589619159698486,-8.789113998413086,
1557415722508,0.06483249207514614,,,,
1557415722509,,4.364629745483398,-0.7805097699165344,-8.796297073364258,
1557415722569,0.07442840340364403,4.400542736053467,,,
1557415722570,,,-0.7374141216278076,-8.765172004699707,
1557415722608,,,,,999.0693359375
1557415722628,0.072436391909396,,,,
1557415722629,,4.383783340454102,-0.6919242739677429,-8.78432559967041,
1557415722689,0.0574174769819276,4.326322555541992,-0.6991068720817566,-8.81784439086914,
1557415722750,0.05933015519572369,4.268861770629883,,,
1557415722751,,,-0.7110779285430908,-8.753201484680176,
1557415722789,,,,,999.073486328125
1557415722812,0.055953588346513865,4.278438568115234,-0.7038952708244324,-8.753201484680176,
1557415722872,0.09013988059502391,4.357447147369385,,-8.762778282165527,
1557415722873,,,-0.6440402865409851,,
1557415722934,0.09515698460043244,4.417302131652832,-0.7709329724311829,-8.738836288452148,
1557415722972,,,,,999.079833984375
1557415722993,0.07930211263656743,4.395754337310791,-0.790086567401886,-8.772355079650879,
1557415723052,0.11448827145301256,,,,
1557415723053,,4.290409564971924,-0.667982280254364,-8.848969459533691,
1557415723113,0.1318675391857358,4.3861775398254395,-0.8403648138046265,-8.825027465820312,
1557415723152,,,,,999.081298828125
1557415723174,0.08462397577523131,4.268861770629883,-0.6799532771110535,-8.793902397155762,
1557415723234,0.09059259106479328,4.299986362457275,-0.7254431247711182,-8.683769226074219,
1557415723295,0.02310807963055724,4.350264549255371,,,
1557415723296,,,-0.7350199222564697,-8.769960403442383,
1557415723335,,,,,999.08837890625
1557415723355,0.06154181947546032,,,,
1557415723356,,4.273650169372559,-0.730231523513794,-8.803479194641113,
1557415723415,0.04944670808811316,4.299986362457275,-0.7805097699165344,-8.772355079650879,
1557415723475,0.09914142418938324,,,,
1557415723476,,4.422090530395508,-0.768538773059845,-8.779537200927734,
1557415723516,,,,,999.086181640625
1557415723536,0.07163101643530147,,,,
1557415723537,,4.400542736053467,-0.7254431247711182,-8.772355079650879,
1557415723597,0.059807389679177626,4.355052947998047,-0.7876923680305481,-8.734047889709473,
1557415723659,0.07886032713271256,4.307168960571289,-0.7015010714530945,-8.829815864562988,
1557415723699,,,,,999.0859375
1557415723719,0.04710007563500016,4.288015365600586,-0.7565677165985107,-8.78432559967041,
1557415723780,0.06187358248897943,4.290409564971924,-0.6991068720817566,-8.796297073364258,
1557415723840,0.049605616855197474,4.359841346740723,,-8.736441612243652,
1557415723841,,,-0.7589619159698486,,
1557415723879,,,,,999.09521484375
1557415723899,0.03621252874059116,,,,
1557415723900,,4.321534156799316,-0.7038952708244324,-8.765172004699707,
1557415723958,0.04874968904616146,,,,
1557415723959,,4.352658748626709,-0.7781155705451965,-8.786720275878906,
1557415724019,0.020821382278599428,4.307168960571289,-0.7422025203704834,-8.769960403442383,
1557415724058,,,,,999.0810546875
1557415724079,0.05701343980068751,4.364629745483398,-0.7206547260284424,-8.808267593383789,
1557415724139,0.053682840107311315,4.290409564971924,,,
1557415724140,,,-0.7637503147125244,-8.801085472106934,
1557415724200,0.026968263956278337,4.338293552398682,-0.7469909191131592,-8.746018409729004,
1557415724239,,,,,999.06787109375
1557415724259,0.052575401587047696,4.292803764343262,-0.7493851184844971,-8.810662269592285,
1557415724319,0.04802873470592779,4.367023944854736,,-8.7484130859375,
1557415724320,,,-0.7541735172271729,,
1557415724380,0.06446693012472143,4.285621166229248,,,
1557415724381,,,-0.689530074596405,-8.762778282165527,
1557415724423,,,,,999.064208984375
1557415724442,0.07154334780785036,4.3861775398254395,-0.7661445140838623,-8.798690795898438,
1557415724501,0.05449089831532923,4.343081951141357,-0.7805097699165344,-8.803479194641113,
1557415724564,0.1576188684158791,4.223371982574463,-0.6607996821403503,-8.678980827331543,
1557415724604,,,,,999.0625
1557415724624,0.09234670070348912,4.307168960571289,-0.8259995579719543,-8.753201484680176,
1557415724684,0.15813181883165842,4.240131378173828,-0.6631938815116882,-8.889671325683594,
1557415724744,0.1478876923896545,4.402936935424805,-0.586579442024231,-8.81784439086914,
1557415724784,,,,,999.0615234375
1557415724804,0.2084130025562786,,,,
1557415724805,,4.534617900848389,-0.7086837291717529,-8.844181060791016,
1557415724864,0.12428186930261614,,,,
1557415724865,,4.367023944854736,-0.8236053586006165,-8.834604263305664,
1557415724925,0.29687240248095886,4.278438568115234,-0.9457096457481384,-8.544905662536621,
1557415724964,,,,,999.064208984375
1557415724984,0.17135146993082287,4.23773717880249,-0.6224924325942993,-8.69334602355957,
1557415725177,0.253164499050259,4.304774761199951,-0.6129156351089478,-9.009381294250488,999.052978515625
1557415725225,0.09563946066080493,4.414907932281494,-0.7829039692878723,-8.743624687194824,
1557415725285,0.14361622847157127,4.4508209228515625,-0.790086567401886,-8.83699893951416,
1557415725326,,,,,999.061279296875
1557415725346,0.06129155283403447,4.393360137939453,-0.7182605266571045,-8.798690795898438,
1557415725406,0.09061299010148331,4.28322696685791,-0.6751648783683777,-8.710105895996094,
1557415725468,0.10656680164855985,4.230554580688477,-0.6967126727104187,-8.808267593383789,
1557415725508,,,,,999.0703125
1557415725528,0.06462962375264492,4.280832767486572,-0.7589619159698486,-8.801085472106934,
1557415725589,0.02903831649099897,4.355052947998047,-0.7086837291717529,-8.769960403442383,
1557415725649,0.08109195266231269,4.410119533538818,,,
1557415725650,,,-0.7613561153411865,-8.779537200927734,
1557415725689,,,,,999.071044921875
1557415725708,0.029299421994438853,4.321534156799316,-0.7086837291717529,-8.7484130859375,
1557415725768,0.06681317233767926,4.304774761199951,-0.7541735172271729,-8.820239067077637,
1557415725831,0.06527683566531856,4.3191399574279785,-0.7254431247711182,-8.832210540771484,
1557415725870,,,,,999.07958984375
1557415725888,0.03062895288002893,4.343081951141357,-0.7134721279144287,-8.793902397155762,
1557415725948,0.058862020364499494,4.364629745483398,-0.7661445140838623,-8.796297073364258,
1557415726009,0.05877953718332456,,,,
1557415726010,,4.343081951141357,-0.7829039692878723,-8.789113998413086,
1557415726050,,,,,999.08203125
1557415726070,0.06768246723632723,4.271255970001221,-0.751779317855835,-8.798690795898438,
1557415726130,0.0663840663545025,4.359841346740723,-0.7374141216278076,-8.827422142028809,
1557415726190,0.08548388459157868,,,,
1557415726191,,4.347870349884033,-0.646434485912323,-8.75080680847168,
1557415726231,,,,,999.081298828125
1557415726251,0.1359171391727803,4.235342979431152,-0.689530074596405,-8.868123054504395,
1557415726311,0.14345802244463313,4.378994941711426,,,
1557415726312,,,-0.8667010068893433,-8.707711219787598,
1557415726372,0.18043424061697677,4.46518611907959,-0.8188169598579407,-8.87291145324707,
1557415726411,,,,,999.0908203125
1557415726431,0.07296278749484131,,,,
1557415726432,,4.376600742340088,-0.7805097699165344,-8.81784439086914,
1557415726491,0.11080947745692905,4.438849925994873,,,
1557415726492,,,-0.7876923680305481,-8.801085472106934,
1557415726552,0.1613144400013287,4.194641590118408,-0.6943184733390808,-8.83939266204834,
1557415726592,,,,,999.089599609375
1557415726613,0.13636286601658174,4.213795185089111,-0.6727706789970398,-8.729259490966797,
1557415726674,0.1489074508142237,4.350264549255371,-0.8427590131759644,-8.882488250732422,
1557415726735,0.1270131922716606,,,,
1557415726736,,4.398148536682129,-0.8475474119186401,-8.810662269592285,
1557415726775,,,,,999.094970703125
1557415726795,0.16255804959900133,4.49870491027832,-0.7015010714530945,-8.791508674621582,
1557415726856,0.14713667275446815,4.417302131652832,-0.7445967197418213,-8.887276649475098,
1557415726916,0.14527683999779245,4.194641590118408,,-8.722076416015625,
1557415726917,,,-0.706289529800415,,
1557415726956,,,,,999.104736328125
1557415726975,0.10476362766265007,,,,
1557415726976,,4.223371982574463,-0.768538773059845,-8.753201484680176,
1557415727037,0.15938995375322215,,,,
1557415727038,,4.414907932281494,-0.8379706144332886,-8.863334655761719,
1557415727097,0.1440683956656886,4.398148536682129,-0.7230489253997803,-8.89445972442627,
1557415727136,,,,,999.093994140625
1557415727160,0.09643012888693867,4.424484729766846,-0.7015010714530945,-8.772355079650879,
1557415767015,0.033254965114998564,4.331110954284668,-0.7733271718025208,-8.772355079650879,999.09375
1557415767046,,,,,999.08349609375
1557415767065,0.06001205114073805,4.338293552398682,-0.7637503147125244,-8.825027465820312,
1557415767126,0.07165507197960994,4.355052947998047,-0.7757213711738586,-8.827422142028809,
1557415767185,0.12439408448819327,4.290409564971924,,,
1557415767186,,,-0.751779317855835,-8.892065048217773,
1557415767225,,,,,999.0927734375
1557415767245,0.07447877933272544,4.259284973144531,-0.7781155705451965,-8.810662269592285,
1557415767306,0.10107012754259585,4.3191399574279785,-0.8236053586006165,-8.846575736999512,
1557415767368,0.11201432881062293,4.371812343597412,-0.751779317855835,-8.87051773071289,
1557415767408,,,,,999.093017578125
1557415767429,0.11099729404072332,4.378994941711426,-0.8307880163192749,-8.834604263305664,
1557415767489,0.07819874382513181,4.290409564971924,-0.7565677165985107,-8.848969459533691,
1557415767550,0.05710679832847903,,,,
1557415767551,,4.252102375030518,-0.7637503147125244,-8.789113998413086,
1557415767590,,,,,999.093994140625
1557415767610,0.0562736796664231,4.278438568115234,-0.8164227604866028,-8.789113998413086,
1557415767669,0.15564206588962023,,,,
1557415767670,,4.405331134796143,-0.8523358106613159,-8.87291145324707,
1557415767731,0.14034961518599115,4.426878929138184,-0.8044517636299133,-8.856152534484863,
1557415767769,,,,,999.091796875
1557415767789,0.06871393081191295,,,,
1557415767790,,4.259284973144531,-0.7445967197418213,-8.786720275878906,
1557415767851,0.07075584235075179,4.24970817565918,,,
1557415767852,,,-0.828393816947937,-8.777143478393555,
1557415767911,0.10697987395420785,4.316745758056641,-0.828393816947937,-8.87291145324707,
1557415767951,,,,,999.087158203125
1557415767971,0.1386518128080368,4.4292731285095215,-0.7948749661445618,-8.848969459533691,
1557415768032,0.07433600950413001,4.3622355461120605,-0.768538773059845,-8.822632789611816,
1557415768093,0.06114394601468592,4.2975921630859375,-0.7805097699165344,-8.834604263305664,
1557415768132,,,,,999.08740234375
1557415768153,0.08517130206882366,,,,
1557415768154,,4.244919776916504,-0.828393816947937,-8.829815864562988,
1557415768214,0.09755236345163683,4.359841346740723,-0.7852981686592102,-8.856152534484863,
1557415768274,0.1139678127683318,4.417302131652832,-0.7805097699165344,-8.808267593383789,
1557415768313,,,,,999.09423828125
1557415768333,0.07918995169199092,4.314351558685303,,,
1557415768334,,,-0.727837324142456,-8.829815864562988,
1557415768394,0.06911360325773586,4.268861770629883,-0.8044517636299133,-8.834604263305664,
1557415768455,0.05060661070229768,4.299986362457275,-0.7613561153411865,-8.825027465820312,
1557415768494,,,,,999.086669921875
1557415768515,0.08450780809671708,4.367023944854736,-0.790086567401886,-8.832210540771484,
1557415768574,0.13375819330432517,,,,
1557415768575,,4.37420654296875,-0.811634361743927,-8.887276649475098,
1557415768635,0.06831597585420923,4.307168960571289,-0.7422025203704834,-8.832210540771484,
1557415768674,,,,,999.083984375
1557415768695,0.05847529318520628,4.24970817565918,-0.768538773059845,-8.810662269592285,
1557415768754,0.06765173723001917,4.268861770629883,,,
1557415768755,,,-0.8068459630012512,-8.83699893951416,
1557415768815,0.10062800148225151,4.367023944854736,-0.7948749661445618,-8.853757858276367,
1557415768855,,,,,999.076171875
1557415768876,0.12905661165415,,,,
1557415768877,,4.369418144226074,-0.7829039692878723,-8.887276649475098,
1557415768937,0.03231872399524955,,,,
1557415768938,,4.268861770629883,-0.7709329724311829,-8.786720275878906,
1557415769000,0.053960506459579186,4.256890773773193,-0.7757213711738586,-8.81784439086914,
1557415769040,,,,,999.068603515625
1557415769059,0.10419321069673369,,,,
1557415769060,,4.350264549255371,-0.8020575642585754,-8.868123054504395,
1557415769119,0.07133700443999406,,,,
1557415769120,,4.369418144226074,-0.7781155705451965,-8.796297073364258,
1557415769180,0.0470142333162904,4.331110954284668,-0.8044517636299133,-8.810662269592285,
1557415769220,,,,,999.078369140625
1557415769240,0.07859085485783568,4.2760443687438965,-0.8164227604866028,-8.848969459533691,
1557415769302,0.0713654657395272,4.321534156799316,-0.7374141216278076,-8.825027465820312,
1557415769363,0.058353655367598165,4.307168960571289,-0.7613561153411865,-8.832210540771484,
1557415769402,,,,,999.07763671875
1557415769422,0.1056349998175998,4.309563159942627,-0.8092401623725891,-8.882488250732422,
1557415769482,0.026582764905171016,4.28322696685791,-0.7757213711738586,-8.803479194641113,
1557415769543,0.048648415306965946,4.288015365600586,-0.7613561153411865,-8.825027465820312,
1557415769584,,,,,999.080322265625
1557415769604,0.16972261013789033,4.414907932281494,,-8.875306129455566,
1557415769605,,,-0.8619126081466675,,
1557415769665,0.10073068074558256,4.371812343597412,-0.7996633648872375,-8.846575736999512,
1557415769724,0.04235933835968324,,,,
1557415769725,,4.304774761199951,-0.7493851184844971,-8.767566680908203,
1557415769765,,,,,999.092041015625
1557415769789,0.14869951037428605,4.228160381317139,-0.646434485912323,-8.825027465820312,
1557415769845,0.14288914736551553,,,,
1557415769846,,4.194641590118408,-0.8403648138046265,-8.880094528198242,
1557415769907,0.1516414065785536,4.350264549255371,-0.8259995579719543,-8.916007041931152,
1557415769946,,,,,999.0966796875
1557415769966,0.1227652263049837,,,,
1557415769967,,4.410119533538818,-0.7565677165985107,-8.736441612243652,
1557415770027,0.12798014948681408,4.417302131652832,-0.8236053586006165,-8.825027465820312,
1557415770088,0.07224772528038256,4.302380561828613,-0.790086567401886,-8.851364135742188,
1557415770127,,,,,999.103271484375
1557415770147,0.05734103912967157,4.252102375030518,-0.7709329724311829,-8.81784439086914,
1557415770208,0.10345784860165304,4.280832767486572,-0.7565677165985107,-8.880094528198242,
1557415770269,0.05950075137366177,4.314351558685303,-0.7733271718025208,-8.834604263305664,
1557415770309,,,,,999.109130859375
1557415770328,0.11464922042007476,4.350264549255371,-0.8140285611152649,-8.877699851989746,
1557415770390,0.056139629417295576,,,,
1557415770391,,4.316745758056641,-0.8307880163192749,-8.813055992126465,
1557415770449,0.08723971084566429,4.3622355461120605,-0.7613561153411865,-8.825027465820312,
1557415770488,,,,,999.089111328125
1557415770509,0.05586426270048702,4.292803764343262,-0.7805097699165344,-8.83699893951416,
1557415770570,0.05068276557172234,4.261679172515869,,,
1557415770571,,,-0.7469909191131592,-8.78193187713623,
1557415770630,0.045936849935791266,,,,
1557415770631,,4.2760443687438965,-0.7445967197418213,-8.798690795898438,
1557415770669,,,,,999.078369140625
1557415770689,0.26921510814610095,,,,
1557415770690,,4.345476150512695,-0.6631938815116882,-9.02135181427002,
1557415770750,0.1519641977605378,,,,
1557415770751,,4.426878929138184,-0.8810662031173706,-8.786720275878906,
1557415770811,0.18111538574286143,,,,
1557415770812,,4.477157115936279,-0.8451532125473022,-8.674192428588867,
1557415770850,,,,,999.076171875
1557415770871,0.16997379299074147,,,,
1557415770872,,4.4532151222229,-0.8690952062606812,-8.858546257019043,
1557415770932,0.1569750652102283,4.304774761199951,,,
1557415770933,,,-0.7709329724311829,-8.925583839416504,
1557415770993,0.20139868459409294,4.153939723968506,,-8.848969459533691,
1557415770994,,,-0.6631938815116882,,
1557415771032,,,,,999.076171875
1557415771053,0.10161531432296374,4.218583583831787,-0.7493851184844971,-8.851364135742188,
1557415771112,0.0927229944925165,,,,
1557415771113,,4.321534156799316,-0.8523358106613159,-8.846575736999512,
1557415771173,0.1423460822746579,4.422090530395508,-0.8068459630012512,-8.848969459533691,
1557415771212,,,,,999.082275390625
1557415771233,0.0979732803349793,4.395754337310791,-0.8140285611152649,-8.789113998413086,
1557415771294,0.06735834769467927,4.292803764343262,-0.8020575642585754,-8.846575736999512,
1557415771356,0.15123705038090077,4.2951979637146,-0.7110779285430908,-8.908824920654297,
1557415771395,,,,,999.0888671875
1557415771415,0.061251223543412114,4.244919776916504,-0.8020575642585754,-8.738836288452148,
1557415771474,0.1299726491018994,,,,
1557415771475,,4.355052947998047,-0.8667010068893433,-8.87291145324707,
1557415771535,0.07813160987548669,4.359841346740723,-0.811634361743927,-8.825027465820312,
1557415771574,,,,,999.092041015625
1557415771596,0.14419606365134904,4.383783340454102,-0.7781155705451965,-8.89445972442627,
1557415771657,0.07149942596599425,4.292803764343262,,,
1557415771658,,,-0.730231523513794,-8.81784439086914,
1557415771718,0.11388389013418679,4.323928356170654,-0.8259995579719543,-8.882488250732422,
1557415771756,,,,,999.098876953125
1557415771777,0.0933329474980108,4.299986362457275,-0.7637503147125244,-8.868123054504395,
1557415771837,0.0744752029495733,4.371812343597412,,-8.791508674621582,
1557415771838,,,-0.8092401623725891,,
1557415771897,0.13211536464952894,4.311957359313965,-0.8355764150619507,-8.899248123168945,
1557415771937,,,,,999.105712890625
1557415771956,0.15300639629317286,,,,
1557415771957,,4.434061527252197,-0.7781155705451965,-8.860940933227539,
1557415772016,0.1416045879172354,4.2951979637146,,,
1557415772017,,,-0.6727706789970398,-8.87291145324707,
1557415776015,0.1578245401510648,4.299986362457275,-0.9361328482627869,-8.832210540771484,999.1083984375
1557415776027,0.12412966286697279,4.326322555541992,-0.7254431247711182,-8.882488250732422,
1557415776067,,,,,999.102783203125
1557415776086,0.11046395022285409,4.2975921630859375,-0.6967126727104187,-8.848969459533691,
1557415776146,0.08353672377529545,4.2975921630859375,-0.727837324142456,-8.848969459533691,
1557415776208,0.10381626610380988,4.288015365600586,-0.7350199222564697,-8.882488250732422,
1557415776247,,,,,999.0966796875
1557415776267,0.07497297895464725,4.285621166229248,-0.7541735172271729,-8.860940933227539,
1557415776328,0.09782666595850283,4.316745758056641,-0.7182605266571045,-8.863334655761719,
1557415776388,0.07218796836197415,4.288015365600586,-0.730231523513794,-8.851364135742188,
1557415776429,,,,,999.090576171875
1557415776449,0.09532243567413366,4.290409564971924,-0.7326257228851318,-8.880094528198242,
1557415776510,0.0955682797134291,4.2951979637146,-0.7374141216278076,-8.882488250732422,
1557415776570,0.062270054414352294,4.292803764343262,-0.7398083209991455,-8.848969459533691,
1557415776610,,,,,999.087158203125
1557415776629,0.08676812424538848,,,,
1557415776630,,4.316745758056641,-0.7230489253997803,-8.860940933227539,
1557415776691,0.06204392317820947,4.304774761199951,-0.7445967197418213,-8.846575736999512,
1557415776751,0.06819302891642043,4.311957359313965,-0.7086837291717529,-8.829815864562988,
1557415776791,,,,,999.085693359375
1557415776811,0.075679163649325,4.292803764343262,-0.6991068720817566,-8.846575736999512,
1557415776872,0.05634948291164753,,,,
1557415776873,,4.288015365600586,-0.7637503147125244,-8.846575736999512,
1557415776933,0.09593124838350679,4.350264549255371,-0.6943184733390808,-8.827422142028809,
1557415776972,,,,,999.08642578125
1557415776992,0.06420116594528139,4.3406877517700195,-0.7254431247711182,-8.801085472106934,
1557415777053,0.04331935010379336,4.299986362457275,-0.7134721279144287,-8.81784439086914,
1557415777114,0.059691690468234755,4.304774761199951,-0.7182605266571045,-8.841787338256836,
1557415777153,,,,,999.085693359375
1557415777173,0.06491767478374542,,,,
1557415777174,,4.333505153656006,-0.7158663272857666,-8.825027465820312,
1557415777235,0.012879106652345351,4.285621166229248,-0.7493851184844971,-8.78432559967041,
1557415777297,0.05036925576159994,4.309563159942627,-0.7565677165985107,-8.829815864562988,
1557415777336,,,,,999.082763671875
1557415777356,0.03768635789226389,4.309563159942627,-0.7326257228851318,-8.81784439086914,
1557415777416,0.02062101850859032,4.2951979637146,-0.7206547260284424,-8.796297073364258,
1557415777478,0.028129953206521677,4.259284973144531,-0.7445967197418213,-8.801085472106934,
1557415777519,,,,,999.089111328125
1557415777539,0.05321023078553325,4.309563159942627,-0.7422025203704834,-8.83699893951416,
1557415777599,0.051295410164383916,,,,
1557415777600,,4.333505153656006,-0.7182605266571045,-8.786720275878906,
1557415777662,0.0393205271649086,4.316745758056641,-0.7182605266571045,-8.808267593383789,
1557415777701,,,,,999.092529296875
1557415777723,0.03554061216161106,4.290409564971924,-0.768538773059845,-8.803479194641113,
1557415777781,0.030712489442373255,4.268861770629883,-0.7182605266571045,-8.772355079650879,
1557415777842,0.02694626976684105,4.273650169372559,-0.7254431247711182,-8.810662269592285,
1557415777881,,,,,999.091552734375
1557415777901,0.07049095501774058,4.309563159942627,-0.7326257228851318,-8.856152534484863,
1557415777962,0.0402010165968947,4.261679172515869,,-8.796297073364258,
1557415777963,,,-0.7015010714530945,,
1557415778023,0.0205878727254816,4.273650169372559,,,
1557415778024,,,-0.7230489253997803,-8.80587387084961,
1557415778064,,,,,999.09326171875
1557415778083,0.013754153774842097,,,,
1557415778084,,4.285621166229248,-0.7182605266571045,-8.789113998413086,
1557415778144,0.04854940017367471,4.2975921630859375,-0.7134721279144287,-8.834604263305664,
1557415778206,0.03889941504009218,4.302380561828613,,,
1557415778207,,,-0.7158663272857666,-8.822632789611816,
1557415778246,,,,,999.0859375
1557415778266,0.036016576908506834,4.2760443687438965,-0.7038952708244324,-8.81784439086914,
1557415778328,0.019465125922634906,4.285621166229248,-0.7326257228851318,-8.810662269592285,
1557415778386,0.03602992048192771,4.288015365600586,-0.6991068720817566,-8.815450668334961,
1557415778426,,,,,999.089599609375
1557415778446,0.01630521920691624,4.285621166229248,-0.7230489253997803,-8.808267593383789,
1557415778508,0.011435878985629297,4.278438568115234,,,
1557415778509,,,-0.727837324142456,-8.78193187713623,
1557415778568,0.04006987642060959,4.285621166229248,-0.730231523513794,-8.832210540771484,
1557415778608,,,,,999.095458984375
1557415778629,0.03760106826757015,4.302380561828613,-0.7350199222564697,-8.822632789611816,
1557415778689,0.01473140170167076,,,,
1557415778690,,4.278438568115234,-0.7398083209991455,-8.791508674621582,
1557415778749,0.009437113869264642,4.278438568115234,-0.727837324142456,-8.801085472106934,
1557415778789,,,,,999.10107421875
1557415778810,0.03258018572039287,4.256890773773193,-0.7469909191131592,-8.801085472106934,
1557415778868,0.011349060310071669,,,,
1557415778869,,4.278438568115234,-0.7158663272857666,-8.796297073364258,
1557415778930,0.026137143191059885,4.2975921630859375,-0.7254431247711182,-8.813055992126465,
1557415778969,,,,,999.094970703125
1557415778989,0.02203218951614652,4.266467571258545,-0.7422025203704834,-8.801085472106934,
1557415779049,0.020404816030408536,4.271255970001221,-0.7182605266571045,-8.777143478393555,
1557415779110,0.019461475102877303,4.271255970001221,-0.7374141216278076,-8.779537200927734,
1557415779149,,,,,999.09912109375
1557415779169,0.05261821890601032,,,,
1557415779170,,4.2760443687438965,-0.6775590777397156,-8.815450668334961,
1557415779231,0.01669728594882588,,,,
1557415779232,,4.280832767486572,-0.727837324142456,-8.777143478393555,
1557415779293,0.011231675031395886,4.28322696685791,-0.7158663272857666,-8.798690795898438,
1557415779332,,,,,999.101806640625
1557415779354,0.03725640601510801,4.259284973144531,,-8.772355079650879,
1557415779355,,,-0.7015010714530945,,
1557415779413,0.015203204001187623,,,,
1557415779414,,4.278438568115234,-0.7182605266571045,-8.808267593383789,
1557415779473,0.015619591805177503,4.268861770629883,-0.7326257228851318,-8.786720275878906,
1557415779514,,,,,999.10498046875
1557415779534,0.02710579573840455,4.271255970001221,-0.7038952708244324,-8.777143478393555,
1557415779595,0.03367967677840715,4.2975921630859375,-0.7038952708244324,-8.815450668334961,
1557415779656,0.020838547000832285,4.259284973144531,-0.727837324142456,-8.798690795898438,
1557415779696,,,,,999.099609375
1557415779717,0.028051857163773737,4.304774761199951,-0.7326257228851318,-8.791508674621582,
1557415779778,0.05121159004258335,4.230554580688477,-0.7350199222564697,-8.779537200927734,
1557415779838,0.07126678811207052,4.2975921630859375,-0.7206547260284424,-8.863334655761719,
1557415779877,,,,,999.095947265625
1557415779897,0.027963680391935013,4.264073371887207,-0.6991068720817566,-8.80587387084961,
1557415779957,0.011370048684145867,4.28322696685791,-0.7134721279144287,-8.791508674621582,
1557415780018,0.022777190338842162,4.271255970001221,-0.7422025203704834,-8.803479194641113,
1557415780057,,,,,999.08935546875
1557415780077,0.008109172960620277,4.268861770629883,,-8.798690795898438,
1557415780078,,,-0.7230489253997803,,
1557415780137,0.020517237092814763,4.292803764343262,-0.727837324142456,-8.80587387084961,
1557415780198,0.019723115958681196,4.292803764343262,-0.7182605266571045,-8.80587387084961,
1557415780237,,,,,999.089111328125
1557415780257,0.009788485680866332,4.2760443687438965,-0.730231523513794,-8.791508674621582,
1557415780318,0.0263726242076479,,,,
1557415780319,,4.290409564971924,-0.7230489253997803,-8.81784439086914,
1557415780379,0.018199132671580447,4.259284973144531,-0.727837324142456,-8.793902397155762,
1557415780418,,,,,999.091796875
1557415780438,0.08080386799759398,4.256890773773193,-0.6631938815116882,-8.741230010986328,
1557415780498,0.059119163619671546,4.28322696685791,-0.7493851184844971,-8.848969459533691,
1557415780559,0.12566587297998844,4.359841346740723,-0.8068459630012512,-8.846575736999512,
1557415780598,,,,,999.08544921875
1557415780618,0.11392544635008675,4.189853191375732,-0.6560112833976746,-8.815450668334961,
1557415780678,0.05256064372351263,4.24970817565918,-0.7134721279144287,-8.753201484680176,
1557415780739,0.05374958425252944,4.2760443687438965,-0.7852981686592102,-8.796297073364258,
1557415780778,,,,,999.0810546875
1557415780798,0.054803947806039754,,,,
1557415780799,,4.343081951141357,-0.7182605266571045,-8.789113998413086,
1557415780858,0.03025843648565068,4.3191399574279785,,,
1557415780859,,,-0.7182605266571045,-8.772355079650879,
1557415780919,0.03446987130043687,4.28322696685791,-0.7661445140838623,-8.786720275878906,
1557415780958,,,,,999.089111328125
1557415780978,0.044667513777897315,4.252102375030518,-0.7398083209991455,-8.777143478393555,
1557415792017,0.0983001320065425,,,,
1557415792018,,4.316745758056641,-0.8044517636299133,-8.856152534484863,999.0791015625
1557415792070,0.10691947495429976,4.32871675491333,-0.8212111592292786,-8.851364135742188,
1557415792131,0.06062475894174629,4.32871675491333,-0.7613561153411865,-8.832210540771484,
1557415792171,,,,,999.102783203125
1557415792190,0.016640732640603312,4.299986362457275,-0.7398083209991455,-8.798690795898438,
1557415792252,0.12650469295745337,4.302380561828613,-0.7613561153411865,-8.911218643188477,
1557415792314,0.10567753048453275,4.355052947998047,-0.7876923680305481,-8.860940933227539,
1557415792353,,,,,999.092529296875
1557415792374,0.14641611416134762,4.381389141082764,-0.8667010068893433,-8.81784439086914,
1557415792434,0.07865761756503784,,,,
1557415792435,,4.350264549255371,-0.7469909191131592,-8.83939266204834,
1557415792495,0.06972957412242423,4.338293552398682,-0.7757213711738586,-8.834604263305664,
1557415792536,,,,,999.079345703125
1557415792556,0.12288007329564916,4.197035789489746,-0.7398083209991455,-8.87291145324707,
1557415792618,0.0414710756489151,4.247313976287842,-0.7374141216278076,-8.803479194641113,
1557415792678,0.056489949577844714,4.314351558685303,-0.7541735172271729,-8.83699893951416,
1557415792718,,,,,999.07861328125
1557415792739,0.08076671783215655,4.347870349884033,-0.7613561153411865,-8.83939266204834,
1557415792799,0.09242883225581267,,,,
1557415792800,,4.369418144226074,-0.7709329724311829,-8.827422142028809,
1557415792860,0.07509723683055335,4.345476150512695,-0.7757213711738586,-8.832210540771484,
1557415792899,,,,,999.0810546875
1557415792919,0.0776586351709553,4.230554580688477,-0.7038952708244324,-8.798690795898438,
1557415792979,0.06028335854605929,4.261679172515869,-0.7158663272857666,-8.832210540771484,
1557415793041,0.1796478041048573,4.302380561828613,-0.7709329724311829,-8.966285705566406,
1557415793080,,,,,999.080810546875
1557415793100,0.04759893586258783,,,,
1557415793101,,4.333505153656006,-0.7733271718025208,-8.803479194641113,
1557415793160,0.11864186071859867,,,,
1557415793161,,4.417302131652832,-0.7829039692878723,-8.765172004699707,
1557415793221,0.11640414037648983,4.378994941711426,-0.7948749661445618,-8.860940933227539,
1557415793260,,,,,999.07958984375
1557415793281,0.11470449789410671,4.228160381317139,-0.7398083209991455,-8.87291145324707,
1557415793343,0.1047984030421492,4.228160381317139,-0.751779317855835,-8.87291145324707,
1557415793406,0.0721607800879394,4.292803764343262,-0.730231523513794,-8.856152534484863,
1557415793445,,,,,999.0751953125
1557415793465,0.0708871314857152,4.350264549255371,-0.7781155705451965,-8.815450668334961,
1557415793525,0.08387652391827331,4.335899353027344,-0.7637503147125244,-8.856152534484863,
1557415793586,0.10459041435021939,4.32871675491333,-0.790086567401886,-8.877699851989746,
1557415793625,,,,,999.074951171875
1557415793645,0.06513025317494953,4.2760443687438965,,-8.83939266204834,
1557415793646,,,-0.7182605266571045,,
1557415793706,0.04551692173616931,4.259284973144531,-0.7398083209991455,-8.822632789611816,
1557415793768,0.1253287864028415,4.32871675491333,-0.7948749661445618,-8.899248123168945,
1557415793807,,,,,999.079345703125
1557415793827,0.14453375015158362,4.393360137939453,-0.7852981686592102,-8.880094528198242,
1557415793887,0.046567364348993584,4.321534156799316,-0.7637503147125244,-8.81784439086914,
1557415793948,0.025499485328493676,,,,
1557415793949,,4.266467571258545,-0.7733271718025208,-8.78193187713623,
1557415793989,,,,,999.081298828125
1557415794009,0.1694824027520567,4.247313976287842,-0.7613561153411865,-8.959102630615234,
1557415794068,0.0922399793783668,,,,
1557415794069,,4.288015365600586,-0.7565677165985107,-8.884882926940918,
1557415794130,0.02790417126692524,4.280832767486572,-0.7565677165985107,-8.762778282165527,
1557415794170,,,,,999.07568359375
1557415794191,0.07954473036023814,4.331110954284668,-0.790086567401886,-8.844181060791016,
1557415794250,0.2881285425783443,,,,
1557415794251,,4.364629745483398,-0.8188169598579407,-9.059659004211426,
1557415794313,0.07487540811398019,4.242525577545166,-0.7015010714530945,-8.832210540771484,
1557415794353,,,,,999.078125
1557415794374,0.08366556425186794,4.225766181945801,-0.7206547260284424,-8.738836288452148,
1557415794436,0.22159695026581322,4.443638324737549,-0.8571242094039917,-8.911218643188477,
1557415794496,0.10922357175413393,4.292803764343262,,,
1557415794497,,,-0.768538773059845,-8.89685344696045,
1557415794536,,,,,999.0791015625
1557415794556,0.09457470824950148,4.331110954284668,-0.6991068720817566,-8.844181060791016,
1557415794616,0.03844859848589867,4.285621166229248,-0.7709329724311829,-8.825027465820312,
1557415794676,0.04972989646885574,4.242525577545166,-0.751779317855835,-8.81784439086914,
1557415794715,,,,,999.072509765625
1557415794735,0.12592333770803663,4.247313976287842,,,
1557415794736,,,-0.7230489253997803,-8.908824920654297,
1557415794796,0.15482818294304243,4.359841346740723,-0.8547300100326538,-8.882488250732422,
1557415794856,0.10663097708239934,4.367023944854736,-0.7134721279144287,-8.834604263305664,
1557415794895,,,,,999.079833984375
1557415794916,0.08684353163301536,4.367023944854736,-0.7445967197418213,-8.78193187713623,
1557415794976,0.17863714018116753,4.225766181945801,-0.8307880163192749,-8.951920509338379,
1557415795037,0.1294792761486365,4.189853191375732,-0.7398083209991455,-8.892065048217773,
1557415795077,,,,,999.0751953125
1557415795097,0.019682069447645792,4.290409564971924,,-8.803479194641113,
1557415795098,,,-0.7661445140838623,,
1557415795157,0.15115108445595898,,,,
1557415795158,,4.417302131652832,-0.7757213711738586,-8.853757858276367,
1557415795218,0.11352669909963974,4.343081951141357,-0.8164227604866028,-8.87291145324707,
1557415795257,,,,,999.0693359375
1557415795277,0.04506298117820534,,,,
1557415795278,,4.266467571258545,-0.7398083209991455,-8.815450668334961,
1557415795337,0.07864588304332822,4.2760443687438965,,,
1557415795338,,,-0.7158663272857666,-8.851364135742188,
1557415795398,0.06623928031701107,4.314351558685303,-0.7733271718025208,-8.846575736999512,
1557415795437,,,,,999.074462890625
1557415795458,0.047657666224401554,4.326322555541992,-0.7637503147125244,-8.81784439086914,
1557415795518,0.14603211841941363,4.410119533538818,,,
1557415795519,,,-0.8259995579719543,-8.858546257019043,
1557415795579,0.0829715116448934,4.371812343597412,-0.7876923680305481,-8.820239067077637,
1557415795619,,,,,999.0634765625
1557415795638,0.06909819596922091,4.240131378173828,,,
1557415795639,,,-0.7398083209991455,-8.803479194641113,
1557415795700,0.10579889776431121,4.220977783203125,-0.7613561153411865,-8.863334655761719,
1557415795760,0.1302430742329828,4.359841346740723,-0.811634361743927,-8.887276649475098,
1557415795800,,,,,999.055908203125
1557415795820,0.11264214608610941,4.383783340454102,,-8.853757858276367,
1557415795821,,,-0.7613561153411865,,
1557415795881,0.1271333442320083,4.426878929138184,-0.7709329724311829,-8.820239067077637,
1557415795942,0.070279222799462,4.359841346740723,-0.790086567401886,-8.820239067077637,
1557415795982,,,,,999.0498046875
1557415796002,0.08943192801389464,4.268861770629883,-0.706289529800415,-8.829815864562988,
1557415796062,0.05373803018967583,4.2760443687438965,,,
1557415796063,,,-0.7422025203704834,-8.822632789611816,
1557415796122,0.09220501280783122,,,,
1557415796123,,4.309563159942627,-0.8188169598579407,-8.858546257019043,
1557415796163,,,,,999.055419921875
1557415796184,0.13906780993578607,4.383783340454102,,-8.889671325683594,
1557415796185,,,-0.7829039692878723,,
1557415796245,0.05601371986017061,4.352658748626709,,,
1557415796246,,,-0.790086567401886,-8.779537200927734,
1557415796304,0.05408465245108991,,,,
1557415796305,,4.292803764343262,-0.751779317855835,-8.829815864562988,
1557415796344,,,,,999.05224609375
1557415796364,0.12592011303301462,4.244919776916504,-0.7230489253997803,-8.89445972442627,
1557415796426,0.12360012095291699,,,,
1557415796427,,4.302380561828613,-0.7613561153411865,-8.908824920654297,
1557415796486,0.0459682208039834,4.331110954284668,,-8.80587387084961,
1557415796487,,,-0.7757213711738586,,
1557415796526,,,,,999.047607421875
1557415796547,0.0954788753147301,4.381389141082764,-0.7805097699165344,-8.822632789611816,
1557415796606,0.10534098621953669,4.378994941711426,-0.8331822156906128,-8.80587387084961,
1557415796667,0.22352492549444028,4.218583583831787,-0.6560112833976746,-8.971074104309082,
1557415796707,,,,,999.044921875
1557415796727,0.09199646800098987,,,,
1557415796728,,4.244919776916504,-0.7230489253997803,-8.868123054504395,
1557415796788,0.14335243743616174,4.381389141082764,-0.8738836050033569,-8.803479194641113,
1557415796849,0.14466908043101692,4.422090530395508,-0.790086567401886,-8.851364135742188,
1557415796890,,,,,999.049560546875
1557415796910,0.09858510780544591,,,,
1557415796911,,4.371812343597412,-0.8044517636299133,-8.83699893951416,
1557415796971,0.0924813491070425,4.23773717880249,-0.7134721279144287,-8.844181060791016,
1557415797031,0.2093779609954757,4.165910720825195,-0.6105214357376099,-8.904036521911621,
1557415800015,0.05049375157631891,4.242525577545166,-0.7350199222564697,-8.834604263305664,999.049560546875
1557415800055,0.07517414290440977,4.304774761199951,-0.7829039692878723,-8.853757858276367,
1557415800094,,,,,999.0927734375
1557415800115,0.044005007730049644,4.288015365600586,-0.7661445140838623,-8.827422142028809,
1557415800174,0.06501881567806765,4.309563159942627,,-8.846575736999512,
1557415800175,,,-0.7541735172271729,,
1557415800235,0.09470849995606133,4.359841346740723,-0.7924807667732239,-8.844181060791016,
1557415800274,,,,,999.088623046875
1557415800294,0.1553499884809828,4.395754337310791,,,
1557415800295,,,-0.8547300100326538,-8.860940933227539,
1557415800355,0.0865185180798325,4.367023944854736,-0.7781155705451965,-8.832210540771484,
1557415800416,0.13620711369093375,4.3861775398254395,-0.7805097699165344,-8.884882926940918,
1557415800455,,,,,999.084716796875
1557415800476,0.08761419695080104,4.225766181945801,,,
1557415800477,,,-0.7469909191131592,-8.834604263305664,
1557415800537,0.10933614364201179,4.218583583831787,-0.7038952708244324,-8.848969459533691,
1557415800602,0.059984118332876396,4.266467571258545,-0.7589619159698486,-8.844181060791016,
1557415800641,,,,,999.0859375
1557415800660,0.14226803961374843,4.424484729766846,-0.8068459630012512,-8.808267593383789,
1557415800721,0.0667266269965352,4.347870349884033,-0.7613561153411865,-8.827422142028809,
1557415800781,0.10215642471158505,4.345476150512695,-0.811634361743927,-8.856152534484863,
1557415800821,,,,,999.094482421875
1557415800841,0.01543684592286932,4.292803764343262,-0.7589619159698486,-8.798690795898438,
1557415800901,0.049348112810351445,4.3191399574279785,-0.7709329724311829,-8.825027465820312,
1557415800963,0.0671183746174294,4.321534156799316,-0.7541735172271729,-8.844181060791016,
1557415801002,,,,,999.0908203125
1557415801023,0.059686822378720986,4.278438568115234,-0.727837324142456,-8.832210540771484,
1557415801083,0.0688709192676767,4.290409564971924,-0.7398083209991455,-8.851364135742188,
1557415801144,0.042303084940157644,4.290409564971924,,-8.825027465820312,
1557415801145,,,-0.7757213711738586,,
1557415801184,,,,,999.08642578125
1557415801204,0.07815232395140027,4.338293552398682,-0.751779317855835,-8.846575736999512,
1557415801265,0.07319328582943205,4.350264549255371,-0.7661445140838623,-8.827422142028809,
1557415801326,0.015780432055540344,,,,
1557415801327,,4.285621166229248,-0.7733271718025208,-8.779537200927734,
1557415801367,,,,,999.085693359375
1557415801387,0.10177922508625338,4.299986362457275,-0.7733271718025208,-8.887276649475098,
1557415801448,0.06388613539370804,4.347870349884033,-0.727837324142456,-8.779537200927734,
1557415801510,0.10656839656456896,4.292803764343262,-0.7637503147125244,-8.892065048217773,
1557415801549,,,,,999.081787109375
1557415801570,0.09922876288735437,4.302380561828613,-0.8044517636299133,-8.87291145324707,
1557415801630,0.05767380430060941,,,,
1557415801631,,4.307168960571289,-0.7206547260284424,-8.827422142028809,
1557415801691,0.07804315571519374,4.3191399574279785,,-8.858546257019043,
1557415801692,,,-0.7565677165985107,,
1557415801732,,,,,999.086669921875
1557415801753,0.10089960541383357,4.311957359313965,-0.7637503147125244,-8.884882926940918,
1557415801815,0.08824813240580201,,,,
1557415801816,,4.309563159942627,-0.7589619159698486,-8.87291145324707,
1557415801878,0.03288838100536929,4.292803764343262,,,
1557415801879,,,-0.7541735172271729,-8.820239067077637,
1557415801917,,,,,999.092529296875
1557415801937,0.08130613643571745,4.323928356170654,-0.7852981686592102,-8.853757858276367,
1557415801997,0.059035807253160294,4.311957359313965,-0.730231523513794,-8.834604263305664,
1557415802057,0.07159021208516368,4.326322555541992,-0.7637503147125244,-8.846575736999512,
1557415802097,,,,,999.08837890625
1557415802118,0.06674940139970009,4.2975921630859375,-0.7493851184844971,-8.853757858276367,
1557415802179,0.07703127596005512,4.321534156799316,-0.7948749661445618,-8.844181060791016,
1557415802240,0.05201912761997699,,,,
1557415802241,,4.302380561828613,-0.7493851184844971,-8.83699893951416,
1557415802279,,,,,999.095458984375
1557415802300,0.048346013340124075,4.311957359313965,-0.7661445140838623,-8.827422142028809,
1557415802360,0.07260902751899387,4.316745758056641,-0.7541735172271729,-8.853757858276367,
1557415802421,0.053913449933030114,4.3191399574279785,-0.7493851184844971,-8.829815864562988,
1557415802460,,,,,999.0947265625
1557415802480,0.07056326653543127,4.316745758056641,-0.751779317855835,-8.851364135742188,
1557415802541,0.055951145704761784,,,,
1557415802602,0.0519272531897529,4.299986362457275,-0.7206547260284424,-8.825027465820312,
1557415802641,,,,,999.10546875
1557415802661,0.08531230857499274,4.32871675491333,-0.7924807667732239,-8.851364135742188,
1557415802721,0.07429473839283912,4.321534156799316,-0.7709329724311829,-8.851364135742188,
1557415802782,0.06002704830870239,,,,
1557415802783,,4.333505153656006,-0.7493851184844971,-8.825027465820312,
1557415802823,,,,,999.103515625
1557415802843,0.08422808992582358,4.333505153656006,-0.7709329724311829,-8.856152534484863,
1557415802902,0.07682201282594532,4.32871675491333,,,
1557415802903,,,-0.7876923680305481,-8.844181060791016,
1557415802963,0.062070578327894095,4.302380561828613,-0.7469909191131592,-8.846575736999512,
1557415803002,,,,,999.105712890625
1557415803022,0.07412453054167667,4.2951979637146,,,
1557415803023,,,-0.7589619159698486,-8.860940933227539,
1557415803082,0.07634050093227747,4.2975921630859375,-0.7541735172271729,-8.863334655761719,
1557415803142,0.03971869094615016,4.302380561828613,,,
1557415803143,,,-0.7445967197418213,-8.822632789611816,
1557415803182,,,,,999.09326171875
1557415803202,0.041935692809258164,4.28322696685791,-0.7469909191131592,-8.829815864562988,
1557415803263,0.07703918555918832,4.311957359313965,-0.7805097699165344,-8.856152534484863,
1557415803324,0.10243149064826151,4.316745758056641,-0.7709329724311829,-8.884882926940918,
1557415803363,,,,,999.086181640625
1557415803383,0.06199409204308487,,,,
1557415803384,,4.304774761199951,-0.7661445140838623,-8.846575736999512,
1557415803443,0.07096474176961123,4.252102375030518,,,
1557415803444,,,-0.7422025203704834,-8.853757858276367,
1557415803504,0.06929604295985849,4.299986362457275,-0.7924807667732239,-8.846575736999512,
1557415803543,,,,,999.08056640625
1557415803563,0.0987769952073131,,,,
1557415803564,,4.314351558685303,-0.7709329724311829,-8.882488250732422,
1557415803624,0.0641939014951972,4.323928356170654,-0.751779317855835,-8.83699893951416,
1557415803684,0.06973041889735314,4.2951979637146,-0.7469909191131592,-8.858546257019043,
1557415803723,,,,,999.082275390625
1557415803743,0.0806367826862079,4.311957359313965,-0.7805097699165344,-8.860940933227539,
1557415803803,0.05756817365491837,4.2951979637146,-0.7589619159698486,-8.846575736999512,
1557415803865,0.06174882031013207,,,,
1557415803866,,4.292803764343262,-0.7493851184844971,-8.851364135742188,
1557415803904,,,,,999.0732421875
1557415803925,0.09289706174976892,4.323928356170654,-0.7829039692878723,-8.868123054504395,
1557415803984,0.1034947005302498,,,,
1557415803985,,4.302380561828613,-0.7661445140838623,-8.892065048217773,
1557415804045,0.06682728080938756,4.285621166229248,-0.7613561153411865,-8.858546257019043,
1557415804084,,,,,999.085205078125
1557415804104,0.04785503647319208,,,,
1557415804105,,4.280832767486572,-0.7326257228851318,-8.834604263305664,
1557415804165,0.08286809382244682,,,,
1557415804166,,4.288015365600586,-0.7589619159698486,-8.875306129455566,
1557415804225,0.07479680345984888,4.2951979637146,,-8.865729331970215,
1557415804226,,,-0.7541735172271729,,
1557415804264,,,,,999.08056640625
1557415804285,0.08429682629100393,4.314351558685303,-0.7805097699165344,-8.863334655761719,
1557415804344,0.10415217527281402,,,,
1557415804345,,4.309563159942627,-0.7852981686592102,-8.887276649475098,
1557415804405,0.09672188560413311,4.299986362457275,-0.7565677165985107,-8.887276649475098,
1557415804444,,,,,999.085205078125
1557415804464,0.06635453510531465,,,,
1557415804465,,4.307168960571289,-0.7326257228851318,-8.846575736999512,
1557415804525,0.09316055943043018,4.314351558685303,-0.7757213711738586,-8.875306129455566,
1557415804586,0.0978732083224834,4.314351558685303,-0.7781155705451965,-8.880094528198242,
1557415804626,,,,,999.098876953125
1557415804646,0.05636240602490951,4.292803764343262,-0.7469909191131592,-8.846575736999512,
1557415804707,0.09109515472853585,4.3191399574279785,-0.7541735172271729,-8.87291145324707,
1557415804768,0.08223812946140141,4.299986362457275,-0.7709329724311829,-8.87051773071289,
1557415804808,,,,,999.1025390625
1557415804828,0.06710685322789649,4.28322696685791,-0.7589619159698486,-8.860940933227539,
1557415804889,0.0806522720993595,4.299986362457275,-0.7565677165985107,-8.87051773071289,
1557415804951,0.06945394829282481,4.304774761199951,-0.730231523513794,-8.851364135742188,
1557415804990,,,,,999.097900390625
1557415805011,0.10187254403231438,4.323928356170654,-0.7948749661445618,-8.87291145324707,
1557415826019,0.06293043911045211,4.307168960571289,-0.7469909191131592,-8.846575736999512,999.103271484375
1557415826051,0.14069862557629853,4.165910720825195,-0.7182605266571045,-8.889671325683594,
1557415826090,,,,,999.09326171875
1557415826110,0.08942048776754688,4.211400985717773,-0.7709329724311829,-8.868123054504395,
1557415826170,0.14444645120936414,4.371812343597412,-0.8068459630012512,-8.889671325683594,
1557415826230,0.20267117678420762,4.474762916564941,-0.8044517636299133,-8.848969459533691,
1557415826271,,,,,999.09814453125
1557415826291,0.14538449303693332,4.378994941711426,-0.8236053586006165,-8.884882926940918,
1557415826353,0.08071274039086623,4.235342979431152,-0.7493851184844971,-8.856152534484863,
1557415826413,0.08231699369951626,,,,
1557415826414,,4.220977783203125,-0.7565677165985107,-8.858546257019043,
1557415826453,,,,,999.09521484375
1557415826473,0.05402066486384844,,,,
1557415826474,,4.2760443687438965,-0.751779317855835,-8.846575736999512,
1557415826533,0.08122453359249532,4.345476150512695,-0.7805097699165344,-8.832210540771484,
1557415826593,0.12213960588207422,,,,
1557415826594,,4.37420654296875,-0.7972691655158997,-8.860940933227539,
1557415826633,,,,,999.08740234375
1557415826653,0.04883352726615337,4.2951979637146,,,
1557415826654,,,-0.7541735172271729,-8.834604263305664,
1557415826713,0.05858776538803827,4.280832767486572,-0.730231523513794,-8.83699893951416,
1557415826774,0.06647087907138756,,,,
1557415826775,,4.299986362457275,-0.7469909191131592,-8.851364135742188,
1557415826815,,,,,999.08251953125
1557415826835,0.08237589518580901,,,,
1557415826836,,4.323928356170654,-0.7972691655158997,-8.851364135742188,
1557415826896,0.06730369401088922,,,,
1557415826897,,4.302380561828613,-0.7661445140838623,-8.853757858276367,
1557415826957,0.036691819876921626,4.278438568115234,-0.7613561153411865,-8.827422142028809,
1557415826996,,,,,999.090576171875
1557415827016,0.09020876335206,4.311957359313965,,,
1557415827017,,,-0.7972691655158997,-8.868123054504395,
1557415827077,0.08117475865706054,,,,
1557415827078,,4.302380561828613,-0.7733271718025208,-8.868123054504395,
1557415827139,0.0735848105927819,,,,
1557415827140,,4.314351558685303,-0.7781155705451965,-8.853757858276367,
1557415827178,,,,,999.090576171875
1557415827198,0.09996698736119694,,,,
1557415827199,,4.321534156799316,-0.751779317855835,-8.880094528198242,
1557415827258,0.05389712315156832,,,,
1557415827259,,4.259284973144531,-0.7541735172271729,-8.841787338256836,
1557415827319,0.020981854500707716,4.266467571258545,-0.7757213711738586,-8.777143478393555,
1557415827358,,,,,999.082763671875
1557415827378,0.09163603998016805,4.333505153656006,-0.7972691655158997,-8.856152534484863,
1557415827438,0.11415816306143663,4.338293552398682,-0.7541735172271729,-8.887276649475098,
1557415827498,0.1448953912807315,4.376600742340088,-0.7781155705451965,-8.89685344696045,
1557415827538,,,,,999.07861328125
1557415827558,0.05169737183860692,4.235342979431152,-0.7924807667732239,-8.779537200927734,
1557415827618,0.03809707124292808,4.307168960571289,-0.7709329724311829,-8.81784439086914,
1557415827678,0.17259485503856037,,,,
1557415827679,,4.393360137939453,-0.8259995579719543,-8.913613319396973,
1557415827718,,,,,999.07275390625
1557415827738,0.08723479466556848,4.3191399574279785,,,
1557415827739,,,-0.7254431247711182,-8.848969459533691,
1557415827798,0.05092371159408042,4.259284973144531,,-8.81784439086914,
1557415827799,,,-0.751779317855835,,
1557415827859,0.07001091266937023,4.23773717880249,-0.8140285611152649,-8.753201484680176,
1557415827900,,,,,999.077392578125
1557415827919,0.14501306410218512,4.376600742340088,,,
1557415827920,,,-0.8619126081466675,-8.87291145324707,
1557415827981,0.27802270068735796,4.54419469833374,-0.8068459630012512,-8.925583839416504,
1557415828041,0.10889165807221085,4.422090530395508,,,
1557415828042,,,-0.7661445140838623,-8.760383605957031,
1557415828082,,,,,999.084716796875
1557415828101,0.16481910245593778,,,,
1557415828102,,4.242525577545166,-0.7182605266571045,-8.925583839416504,
1557415828164,0.15264500273948903,4.134786128997803,-0.8020575642585754,-8.808267593383789,
1557415828224,0.09794051758292986,4.216189384460449,-0.7158663272857666,-8.81784439086914,
1557415828265,,,,,999.072509765625
1557415828284,0.20221791939173542,,,,
1557415828285,,4.448426723480225,-0.8667010068893433,-8.875306129455566,
1557415828345,0.12279838872846133,,,,
1557415828346,,4.4077253341674805,-0.768538773059845,-8.83939266204834,
1557415828407,0.10111598289937596,4.37420654296875,-0.7996633648872375,-8.846575736999512,
1557415828445,,,,,999.072998046875
1557415828465,0.08083335404799301,4.299986362457275,,,
1557415828466,,,-0.8020575642585754,-8.858546257019043,
1557415828525,0.06276399765772928,,,,
1557415828526,,4.278438568115234,-0.7733271718025208,-8.841787338256836,
1557415828587,0.03154514308202598,4.285621166229248,-0.7589619159698486,-8.803479194641113,
1557415828626,,,,,999.077880859375
1557415828647,0.10688266673669607,,,,
1557415828648,,4.326322555541992,-0.8092401623725891,-8.880094528198242,
1557415828707,0.11008844825361788,4.376600742340088,-0.8020575642585754,-8.851364135742188,
1557415828767,0.08300910275522388,4.352658748626709,-0.8403648138046265,-8.80587387084961,
1557415828807,,,,,999.0693359375
1557415828827,0.0734388635387044,4.326322555541992,-0.7613561153411865,-8.844181060791016,
1557415828889,0.07013591473765769,,,,
1557415828890,,4.309563159942627,-0.7924807667732239,-8.848969459533691,
1557415828950,0.1136743040579069,,,,
1557415828951,,4.2544965744018555,-0.7422025203704834,-8.882488250732422,
1557415828990,,,,,999.074951171875
1557415829010,0.0706549424970401,4.338293552398682,-0.8331822156906128,-8.798690795898438,
1557415829071,0.12066152945391653,4.388571739196777,-0.811634361743927,-8.851364135742188,
1557415829131,0.11073665605081998,4.321534156799316,,-8.887276649475098,
1557415829132,,,-0.8020575642585754,,
1557415829171,,,,,999.06787109375
1557415829191,0.10104865520272344,4.223371982574463,-0.727837324142456,-8.834604263305664,
1557415829252,0.10914464091214938,4.278438568115234,-0.7996633648872375,-8.892065048217773,
1557415829313,0.08005642306104144,4.3406877517700195,-0.8068459630012512,-8.841787338256836,
1557415829354,,,,,999.066650390625
1557415829375,0.09252081155243443,,,,
1557415829376,,4.371812343597412,-0.8140285611152649,-8.827422142028809,
1557415829437,0.11153866284822453,4.357447147369385,,-8.87291145324707,
1557415829438,,,-0.7996633648872375,,
1557415829499,0.09211886526111318,4.24970817565918,-0.727837324142456,-8.841787338256836,
1557415829539,,,,,999.086669921875
1557415829559,0.05820214019492682,,,,
1557415829560,,4.259284973144531,-0.7829039692878723,-8.832210540771484,
1557415829620,0.1251349316941679,4.347870349884033,-0.8451532125473022,-8.877699851989746,
1557415829681,0.13621017687765408,4.405331134796143,-0.7781155705451965,-8.863334655761719,
1557415829721,,,,,999.09228515625
1557415829741,0.0425163753076005,4.285621166229248,-0.7733271718025208,-8.820239067077637,
1557415829801,0.07964844097045772,,,,
1557415829802,,4.235342979431152,-0.7350199222564697,-8.815450668334961,
1557415829861,0.13304991398878088,,,,
1557415829862,,4.28322696685791,-0.7565677165985107,-8.916007041931152,
1557415829901,,,,,999.09326171875
1557415829922,0.09457081841479632,4.304774761199951,-0.790086567401886,-8.877699851989746,
1557415829982,0.06723481317169473,4.350264549255371,-0.8212111592292786,-8.791508674621582,
1557415830042,0.12560232894975865,4.376600742340088,,-8.87291145324707,
1557415830043,,,-0.8140285611152649,,
1557415830082,,,,,999.108642578125
1557415830102,0.08123484949386822,4.311957359313965,-0.7876923680305481,-8.860940933227539,
1557415830163,0.07114665295327519,4.2760443687438965,-0.7326257228851318,-8.829815864562988,
1557415830226,0.08884521883549709,,,,
1557415830227,,4.244919776916504,-0.8068459630012512,-8.858546257019043,
1557415830264,,,,,999.1171875
1557415830285,0.07483255524622857,4.345476150512695,-0.751779317855835,-8.822632789611816,
1557415830347,0.08799826071114933,4.345476150512695,-0.8068459630012512,-8.848969459533691,
1557415830406,0.06724275670453866,4.338293552398682,-0.751779317855835,-8.822632789611816,
1557415830446,,,,,999.126708984375
1557415830467,0.06763463028391331,,,,
1557415830468,,4.343081951141357,-0.7829039692878723,-8.827422142028809,
1557415830527,0.031123162820873573,4.2951979637146,-0.7733271718025208,-8.813055992126465,
1557415830590,0.07524933979605809,4.309563159942627,,,
1557415830591,,,-0.7805097699165344,-8.856152534484863,
1557415830630,,,,,999.1318359375
1557415830650,0.11134065590991088,4.331110954284668,-0.7829039692878723,-8.887276649475098,
1557415830710,0.07557620150926213,4.311957359313965,-0.7757213711738586,-8.856152534484863,
1557415830771,0.08291602389147992,4.335899353027344,-0.7948749661445618,-8.851364135742188,
1557415830810,,,,,999.113525390625
1557415830830,0.07618965650523161,4.345476150512695,-0.8140285611152649,-8.825027465820312,
1557415830890,0.09263221633267589,4.333505153656006,-0.7757213711738586,-8.865729331970215,
1557415830951,0.08376594904904694,4.314351558685303,,-8.863334655761719,
1557415830952,,,-0.7876923680305481,,
1557415830991,,,,,999.10693359375
1557415831011,0.1179024977674642,4.331110954284668,,,
1557415831012,,,-0.8307880163192749,-8.882488250732422,
1557415832015,0.0735251048742835,4.321534156799316,-0.7637503147125244,-8.848969459533691,999.115966796875
1557415832032,0.06101584701277898,4.261679172515869,-0.7469909191131592,-8.832210540771484,
1557415832092,0.07838386326050102,4.2975921630859375,,,
1557415832093,,,-0.730231523513794,-8.851364135742188,
1557415832132,,,,,999.106201171875
1557415832152,0.1085163111352616,4.24970817565918,-0.8188169598579407,-8.880094528198242,
1557415832212,0.039862121117048926,4.304774761199951,-0.7876923680305481,-8.81784439086914,
1557415832272,0.16357931442294718,,,,
1557415832273,,4.438849925994873,-0.8236053586006165,-8.834604263305664,
1557415832312,,,,,999.097900390625
1557415832332,0.19222532884728658,4.443638324737549,-0.7757213711738586,-8.901641845703125,
1557415832392,0.12240165754082974,4.218583583831787,-0.6799532771110535,-8.846575736999512,
1557415832455,0.15042319502448942,4.180276393890381,-0.727837324142456,-8.9064302444458,
1557415832494,,,,,999.093017578125
1557415832514,0.053473544021667326,4.220977783203125,-0.7661445140838623,-8.808267593383789,
1557415832576,0.17246921731118664,4.414907932281494,-0.8643068075180054,-8.848969459533691,
1557415832638,0.18050125621981966,4.446032524108887,-0.811634361743927,-8.87051773071289,
1557415832678,,,,,999.091064453125
1557415832697,0.03383244144440761,,,,
1557415832698,,4.323928356170654,-0.7661445140838623,-8.791508674621582,
1557415832760,0.12220674519919214,4.213795185089111,-0.7445967197418213,-8.887276649475098,
1557415832820,0.08582820770069403,4.206612586975098,-0.7876923680305481,-8.83939266204834,
1557415832860,,,,,999.095458984375
1557415832881,0.07597804166143377,4.307168960571289,-0.7589619159698486,-8.858546257019043,
1557415832941,0.09767016311717323,4.369418144226074,,,
1557415832942,,,-0.768538773059845,-8.83699893951416,
1557415833004,0.08758950041330349,4.364629745483398,-0.7613561153411865,-8.829815864562988,
1557415833043,,,,,999.09130859375
1557415833063,0.06595893928833763,4.290409564971924,,-8.848969459533691,
1557415833064,,,-0.7733271718025208,,
1557415833123,0.07358843024883915,,,,
1557415833124,,4.302380561828613,-0.7972691655158997,-8.853757858276367,
1557415833185,0.07590144398340361,4.304774761199951,,-8.851364135742188,
1557415833186,,,-0.7445967197418213,,
1557415833225,,,,,999.086181640625
1557415833244,0.052899217809134105,4.311957359313965,,-8.832210540771484,
1557415833245,,,-0.7709329724311829,,
1557415833304,0.10829110889222673,,,,
1557415833305,,4.290409564971924,-0.7445967197418213,-8.889671325683594,
1557415833366,0.1365425063801891,4.369418144226074,-0.8379706144332886,-8.875306129455566,
1557415833405,,,,,999.08447265625
1557415833427,0.06616871790239726,4.292803764343262,-0.7972691655158997,-8.719682693481445,
1557415833486,0.12907782609104024,4.326322555541992,-0.7589619159698486,-8.9064302444458,
1557415833548,0.09327922776520654,4.3622355461120605,-0.7829039692878723,-8.844181060791016,
1557415833589,,,,,999.088623046875
1557415833610,0.09308450148671803,4.273650169372559,-0.6919242739677429,-8.743624687194824,
1557415833672,0.06093084959273641,4.290409564971924,-0.8188169598579407,-8.822632789611816,
1557415833731,0.06444170879638228,,,,
1557415833732,,4.333505153656006,-0.7876923680305481,-8.832210540771484,
1557415833770,,,,,999.088134765625
1557415833790,0.13419698911837505,,,,
1557415833791,,4.400542736053467,-0.790086567401886,-8.865729331970215,
1557415833851,0.011053650605407538,4.307168960571289,-0.7781155705451965,-8.786720275878906,
1557415833911,0.0460977386914788,4.288015365600586,-0.790086567401886,-8.822632789611816,
1557415833950,,,,,999.080810546875
1557415833971,0.05085671759253671,4.3191399574279785,-0.8068459630012512,-8.815450668334961,
1557415834034,0.052640141957921,4.3406877517700195,-0.7733271718025208,-8.81784439086914,
1557415834096,0.08551249477328327,,,,
1557415834097,,4.355052947998047,-0.7230489253997803,-8.83699893951416,
1557415834136,,,,,999.078125
1557415834155,0.028908858149372763,4.290409564971924,,,
1557415834156,,,-0.7709329724311829,-8.793902397155762,
1557415834214,0.10110788199392835,,,,
1557415834215,,4.326322555541992,-0.7972691655158997,-8.87291145324707,
1557415834275,0.05288439181462294,4.355052947998047,-0.7709329724311829,-8.803479194641113,
1557415834316,,,,,999.074462890625
1557415834336,0.053110102096775566,4.357447147369385,-0.7709329724311829,-8.803479194641113,
1557415834397,0.07168202331437488,4.304774761199951,-0.8020575642585754,-8.841787338256836,
1557415834458,0.07767220651728117,4.280832767486572,-0.7374141216278076,-8.846575736999512,
1557415834497,,,,,999.08154296875
1557415834517,0.03506164271875703,4.326322555541992,-0.7781155705451965,-8.801085472106934,
1557415834577,0.08415558463299978,4.350264549255371,-0.768538773059845,-8.848969459533691,
1557415834637,0.0730682596737897,,,,
1557415834638,,4.352658748626709,-0.7757213711738586,-8.834604263305664,
1557415834677,,,,,999.08203125
1557415834698,0.03477631180969784,4.321534156799316,-0.7469909191131592,-8.801085472106934,
1557415834758,0.07862179277675703,4.323928356170654,-0.7781155705451965,-8.853757858276367,
1557415834819,0.0835511405364957,4.288015365600586,-0.706289529800415,-8.841787338256836,
1557415834858,,,,,999.078857421875
1557415834879,0.055522076735669744,4.311957359313965,-0.8092401623725891,-8.815450668334961,
1557415834941,0.05978289374962163,4.355052947998047,-0.7493851184844971,-8.80587387084961,
1557415835003,0.10239883098146883,4.369418144226074,-0.8331822156906128,-8.834604263305664,
1557415835042,,,,,999.075439453125
1557415835062,0.0826750142606885,4.357447147369385,-0.7709329724311829,-8.841787338256836,
1557415835122,0.04194305839474993,4.290409564971924,-0.7445967197418213,-8.810662269592285,
1557415835184,0.09460753405202918,4.285621166229248,-0.8212111592292786,-8.860940933227539,
1557415835224,,,,,999.092041015625
1557415835244,0.0899085920036779,4.2975921630859375,-0.730231523513794,-8.860940933227539,
1557415835304,0.03722173532909411,4.323928356170654,-0.790086567401886,-8.803479194641113,
1557415835364,0.12654826090032945,,,,
1557415835365,,4.333505153656006,-0.8259995579719543,-8.892065048217773,
1557415835404,,,,,999.09423828125
1557415835424,0.10255569141518743,4.290409564971924,-0.7158663272857666,-8.865729331970215,
1557415835485,0.12079142701576008,4.3861775398254395,-0.7924807667732239,-8.860940933227539,
1557415835545,0.05574379405718582,4.28322696685791,,-8.789113998413086,
1557415835546,,,-0.8355764150619507,,
1557415835585,,,,,999.0947265625
1557415835606,0.10882126333317128,4.316745758056641,-0.7852981686592102,-8.884882926940918,
1557415835666,0.06824450036940444,4.333505153656006,-0.7972691655158997,-8.83699893951416,
1557415835726,0.040661168618434614,4.292803764343262,-0.7493851184844971,-8.791508674621582,
1557415835766,,,,,999.084716796875
1557415835787,0.05959892562894038,4.2951979637146,-0.7326257228851318,-8.808267593383789,
1557415835846,0.14358395647890465,,,,
1557415835847,,4.371812343597412,-0.8571242094039917,-8.880094528198242,
1557415835907,0.03602168353399603,,,,
1557415835908,,4.333505153656006,-0.7733271718025208,-8.789113998413086,
1557415835947,,,,,999.0908203125
1557415835967,0.06489634205140161,4.278438568115234,-0.7254431247711182,-8.798690795898438,
1557415836028,0.08783162573919491,4.266467571258545,-0.8044517636299133,-8.858546257019043,
1557415836089,0.039209331282889774,4.259284973144531,-0.7781155705451965,-8.779537200927734,
1557415836129,,,,,999.090087890625
1557415836149,0.1542752166226649,4.41969633102417,-0.8547300100326538,-8.853757858276367,
1557415836209,0.11572239871740858,4.364629745483398,-0.6943184733390808,-8.820239067077637,
1557415836270,0.11128585414472816,4.228160381317139,-0.7637503147125244,-8.87051773071289,
1557415836309,,,,,999.079345703125
1557415836329,0.11777134730570318,4.225766181945801,-0.8259995579719543,-8.87291145324707,
1557415836389,0.05667535769265995,4.326322555541992,-0.8068459630012512,-8.822632789611816,
1557415836450,0.29213429185815465,4.4532151222229,-0.9361328482627869,-8.980650901794434,
1557415836489,,,,,999.06787109375
1557415836509,0.1631248507645169,4.3861775398254395,,,
1557415836510,,,-0.6488286852836609,-8.7484130859375,
1557415836572,0.13136026258135866,4.225766181945801,-0.7852981686592102,-8.899248123168945,
1557415836634,0.21906067720925507,4.10366153717041,-0.7805097699165344,-8.93037223815918,
1557415836675,,,,,999.062744140625
1557415836695,0.08350007008682382,,,,
1557415836696,,4.28322696685791,-0.7326257228851318,-8.722076416015625,
1557415836755,0.11949418715031848,,,,
1557415836756,,4.3191399574279785,-0.6967126727104187,-8.868123054504395,
1557415836816,0.102490090982992,,,,
1557415836817,,4.23773717880249,-0.6943184733390808,-8.808267593383789,
1557415836856,,,,,999.06982421875
1557415836876,0.3474835813540635,4.534617900848389,-1.0534487962722778,-8.801085472106934,
1557415836936,0.22699994574348709,4.522646903991699,-0.8978256583213806,-8.803479194641113,
1557415836996,0.3204455448269487,,,,
1557415836997,,4.501099109649658,-0.7398083209991455,-9.030928611755371,
1557415837036,,,,,999.069091796875
1557415837056,0.20361799239236034,4.422090530395508,-0.9528923034667969,-8.815450668334961,
1557415837116,0.0783673134706641,4.264073371887207,-0.8427590131759644,-8.848969459533691,
1557415837178,0.5463414995914851,3.936067581176758,-0.3663128614425659,-8.604761123657227,
1557415837217,,,,,999.068603515625
1557415837238,0.6927501527214088,3.648763418197632,-0.28730419278144836,-9.114726066589355,
1557415837298,0.4032905327468687,4.072536945343018,-1.0127472877502441,-9.10993766784668,
1557415837360,0.3092307987728189,4.2329487800598145,,-8.595184326171875,
1557415837361,,,-0.8930372595787048,,
1557415837400,,,,,999.07177734375
1557415837420,0.42615684951322697,4.649539470672607,,,
1557415837421,,,-0.6440402865409851,-8.846575736999512,
1557415837479,0.41283501112474685,4.584896087646484,,-9.047688484191895,
1557415837480,,,-0.7876923680305481,,
1557415885020,0.1038011804842249,4.266467571258545,-0.8427590131759644,-8.774748802185059,999.080078125
1557415885055,0.8964088757207035,4.266467571258545,-1.766920804977417,-8.75080680847168,
1557415885116,0.7184034424251159,4.278438568115234,-1.7621324062347412,-8.69095230102539,
1557415885155,,,,,999.06396484375
1557415885175,0.5924377244904043,4.326322555541992,-1.7908629179000854,-8.722076416015625,
1557415885235,0.4661526404226536,4.311957359313965,-1.7764976024627686,-8.712499618530273,
1557415885295,0.3958809117115793,,,,
1557415885296,,4.28322696685791,-1.7884687185287476,-8.7484130859375,
1557415885335,,,,,999.0693359375
1557415885355,0.3131592472558422,4.264073371887207,-1.766920804977417,-8.69334602355957,
1557415885415,0.2613090183132859,4.2760443687438965,-1.7597382068634033,-8.69334602355957,
1557415885476,0.2565662723407967,4.304774761199951,-1.7884687185287476,-8.71728801727295,
1557415885517,,,,,999.078857421875
1557415885537,0.24199887590501926,4.304774761199951,-1.802833914756775,-8.729259490966797,
1557415885598,0.19318432060446666,4.2951979637146,-1.7836803197860718,-8.688557624816895,
1557415885659,0.16723210684467726,4.285621166229248,-1.7764976024627686,-8.707711219787598,
1557415885698,,,,,999.08056640625
1557415885718,0.13690183506020315,4.266467571258545,-1.764526605606079,-8.69095230102539,
1557415885780,0.16619490311916094,,,,
1557415885842,0.14262260109106792,4.247313976287842,-1.7812861204147339,-8.743624687194824,
1557415885883,,,,,999.08056640625
1557415885901,0.09954434497332343,4.268861770629883,,,
1557415885902,,,-1.764526605606079,-8.650250434875488,
1557415885961,0.16182482691180541,,,,
1557415885962,,4.331110954284668,-1.8267759084701538,-8.681375503540039,
1557415886022,0.18346639030380224,,,,
1557415886023,,4.388571739196777,-1.7836803197860718,-8.765172004699707,
1557415886064,,,,,999.093994140625
1557415886084,0.14208082452313567,4.323928356170654,-1.7405846118927002,-8.786720275878906,
1557415886143,0.10179762034168952,,,,
1557415886144,,4.240131378173828,-1.7980455160140991,-8.655038833618164,
1557415899017,0.06675900353317328,4.244919776916504,,-8.652645111083984,
1557415899018,,,-1.7764976024627686,,999.10205078125
1557415899031,0.06066740828472524,,,,
1557415899032,,4.228160381317139,-1.764526605606079,-8.700529098510742,
1557415899094,0.099555674270449,4.264073371887207,-1.7884687185287476,-8.741230010986328,
1557415899133,,,,,999.0341796875
1557415899154,0.09389497554397955,4.309563159942627,-1.7884687185287476,-8.702922821044922,
1557415899214,0.09564766444627847,,,,
1557415899215,,4.304774761199951,-1.7932571172714233,-8.712499618530273,
1557415899275,0.05912953626505339,4.28322696685791,,,
1557415899276,,,-1.778891921043396,-8.683769226074219,
1557415899314,,,,,999.03857421875
1557415899335,0.12170042072572525,4.304774761199951,-1.8387469053268433,-8.707711219787598,
1557415899395,0.08691942809183907,4.299986362457275,-1.7812861204147339,-8.724471092224121,
1557415899456,0.07196571971432872,4.292803764343262,,,
1557415899457,,,-1.800439715385437,-8.686163902282715,
1557415899495,,,,,999.04150390625
1557415899516,0.11933729089821708,4.299986362457275,-1.8411411046981812,-8.722076416015625,
1557415899576,0.07212578285121339,4.307168960571289,,-8.69095230102539,
1557415899577,,,-1.7932571172714233,,
1557415899636,0.07667115612443211,4.326322555541992,-1.7932571172714233,-8.652645111083984,
1557415899676,,,,,999.030029296875
1557415899696,0.0696497116999263,4.290409564971924,,-8.688557624816895,
1557415899697,,,-1.8124107122421265,,
1557415899756,0.08315998042289312,4.292803764343262,-1.8124107122421265,-8.712499618530273,
1557415899817,0.07738166575711047,4.321534156799316,-1.7980455160140991,-8.69095230102539,
1557415899857,,,,,999.041015625
1557415899877,0.07174334402002716,4.299986362457275,-1.8148049116134644,-8.69095230102539,
1557415899937,0.11781047694090753,,,,
1557415899938,,4.378994941711426,-1.7764976024627686,-8.688557624816895,
1557415899998,0.07378189238874922,4.331110954284668,-1.7980455160140991,-8.678980827331543,
1557415900039,,,,,999.055908203125
1557415900060,0.031290376551677164,4.292803764343262,-1.766920804977417,-8.671798706054688,
1557415900122,0.05070989896345266,4.299986362457275,-1.7956513166427612,-8.681375503540039,
1557415900182,0.07661380095226103,,,,
1557415900183,,4.316745758056641,-1.824381709098816,-8.681375503540039,
1557415900223,,,,,999.050048828125
1557415900244,0.04711316372216503,4.314351558685303,-1.7884687185287476,-8.667010307312012,
1557415900306,0.06589207317189232,4.299986362457275,-1.8148049116134644,-8.69095230102539,
1557415900367,0.11977528549917517,4.302380561828613,-1.845929503440857,-8.738836288452148,
1557415900407,,,,,999.057861328125
1557415900427,0.10037559905205963,4.331110954284668,-1.802833914756775,-8.724471092224121,
1557415900487,0.037901492870710485,4.28322696685791,-1.7741034030914307,-8.681375503540039,
1557415900548,0.06922311065147543,,,,
1557415900549,,4.23773717880249,-1.8100165128707886,-8.695740699768066,
1557415900587,,,,,999.05517578125
1557415900609,0.12620299342333854,4.32871675491333,-1.8148049116134644,-8.753201484680176,
1557415900669,0.07988849726924287,4.335899353027344,-1.800439715385437,-8.69095230102539,
1557415900729,0.016440582257688192,4.271255970001221,-1.7741034030914307,-8.65982723236084,
1557415900768,,,,,999.059814453125
1557415900788,0.05179975717388222,4.261679172515869,,-8.678980827331543,
1557415900789,,,-1.8195933103561401,,
1557415900848,0.13733074272022835,4.302380561828613,,,
1557415900849,,,-1.8076223134994507,-8.777143478393555,
1557415900909,0.10412557407314778,4.314351558685303,-1.7621324062347412,-8.738836288452148,
1557415900948,,,,,999.073974609375
1557415900968,0.041983584143661414,,,,
1557415900969,,4.299986362457275,-1.7812861204147339,-8.676587104797363,
1557415901029,0.07411483027012038,4.271255970001221,-1.8195933103561401,-8.710105895996094,
1557415901090,0.10688938899385789,4.2951979637146,-1.7764976024627686,-8.75080680847168,
1557415901129,,,,,999.063720703125
1557415901149,0.11043059633067913,4.314351558685303,-1.800439715385437,-8.746018409729004,
1557415901210,0.07420580838958872,4.28322696685791,-1.8315643072128296,-8.700529098510742,
1557415901270,0.12573553285175856,4.285621166229248,-1.8076223134994507,-8.769960403442383,
1557415901310,,,,,999.058837890625
1557415901329,0.06001558741178778,4.278438568115234,-1.8052281141281128,-8.702922821044922,
1557415901390,0.04405583946381338,4.278438568115234,-1.7693150043487549,-8.688557624816895,
1557415901452,0.05495007523519817,4.268861770629883,-1.8124107122421265,-8.695740699768066,
1557415901491,,,,,999.061279296875
1557415901512,0.0835743531780762,4.280832767486572,-1.821987509727478,-8.722076416015625,
1557415901574,0.07239129120256486,4.290409564971924,-1.8076223134994507,-8.712499618530273,
1557415901636,0.08079110225680684,4.2975921630859375,,,
1557415901637,,,-1.7908629179000854,-8.722076416015625,
1557415901676,,,,,999.05615234375
1557415901697,0.09464837317911277,4.2951979637146,-1.8195933103561401,-8.731653213500977,
1557415901757,0.04693393925822601,4.278438568115234,-1.7908629179000854,-8.69334602355957,
1557415901817,0.11112122383100675,4.302380561828613,-1.778891921043396,-8.753201484680176,
1557415901856,,,,,999.055419921875
1557415901876,0.06237760495215168,4.290409564971924,-1.8076223134994507,-8.700529098510742,
1557415901936,0.132036148917149,4.309563159942627,-1.7980455160140991,-8.772355079650879,
1557415901997,0.04476819235328441,,,,
1557415901998,,4.261679172515869,-1.764526605606079,-8.69095230102539,
1557415902037,,,,,999.048095703125
1557415902056,0.04725965243428181,4.24970817565918,,,
1557415902057,,,-1.7693150043487549,-8.695740699768066,
1557415902116,0.05644357045003266,,,,
1557415902117,,4.2975921630859375,-1.7836803197860718,-8.69334602355957,
1557415902177,0.11169512805762068,4.338293552398682,-1.8148049116134644,-8.724471092224121,
1557415902218,,,,,999.042236328125
1557415902239,0.08417299624620894,4.32871675491333,-1.8076223134994507,-8.695740699768066,
1557415902299,0.12369931287144852,,,,
1557415902300,,4.223371982574463,-1.7501614093780518,-8.765172004699707,
1557415902359,0.05289494167571783,,,,
1557415902360,,4.266467571258545,-1.7932571172714233,-8.702922821044922,
1557415902400,,,,,999.0458984375
1557415902420,0.03188270573877408,4.252102375030518,-1.7621324062347412,-8.678980827331543,
1557415902480,0.1328360312316309,4.381389141082764,-1.8291701078414917,-8.678980827331543,
1557415902540,0.09490293619991953,,,,
1557415902541,,4.288015365600586,-1.8124107122421265,-8.736441612243652,
1557415902580,,,,,999.0478515625
1557415902600,0.1431080493925999,4.23773717880249,-1.8052281141281128,-8.791508674621582,
1557415902660,0.025502960501587766,4.247313976287842,-1.7597382068634033,-8.662221908569336,
1557415902720,0.0670359432471462,4.23773717880249,-1.802833914756775,-8.71489429473877,
1557415902761,,,,,999.055908203125
1557415902781,0.0902038489556678,4.338293552398682,-1.7812861204147339,-8.69095230102539,
1557415902842,0.10333598942797527,4.333505153656006,-1.8315643072128296,-8.702922821044922,
1557415902902,0.08004213315138411,4.2760443687438965,-1.7693150043487549,-8.729259490966797,
1557415902943,,,,,999.058349609375
1557415902963,0.05597951039739761,4.23773717880249,-1.7764976024627686,-8.705317497253418,
1557415903023,0.08901013939105411,4.220977783203125,-1.7094600200653076,-8.700529098510742,
1557415903083,0.11497031280236171,,,,
1557415903084,,4.333505153656006,-1.8363527059555054,-8.71489429473877,
1557415903123,,,,,999.059326171875
1557415903143,0.10770127201437123,4.3406877517700195,-1.8531121015548706,-8.645462036132812,
1557415903203,0.0377118525264645,4.261679172515869,-1.778891921043396,-8.688557624816895,
1557415903265,0.11156706516157708,4.32871675491333,-1.7932571172714233,-8.738836288452148,
1557415903305,,,,,999.05859375
1557415903325,0.06455433369728517,4.247313976287842,-1.766920804977417,-8.712499618530273,
1557415903385,0.09322894853783065,4.290409564971924,-1.8387469053268433,-8.719682693481445,
1557415903445,0.07933920613612501,4.32871675491333,-1.8148049116134644,-8.678980827331543,
1557415903486,,,,,999.060302734375
1557415903506,0.08114494905165455,4.2975921630859375,-1.7884687185287476,-8.722076416015625,
1557415903567,0.04342065585337424,4.28322696685791,-1.8100165128707886,-8.678980827331543,
1557415903628,0.05874374582096024,4.240131378173828,-1.8171991109848022,-8.702922821044922,
1557415903667,,,,,999.060546875
1557415903688,0.035465333825023725,4.268861770629883,-1.7621324062347412,-8.667010307312012,
1557415903749,0.0721363315742304,,,,
1557415903750,,4.2760443687438965,-1.8195933103561401,-8.71489429473877,
1557415903810,0.10769144393730397,,,,
1557415903811,,4.28322696685791,-1.8531121015548706,-8.736441612243652,
1557415903851,,,,,999.05908203125
1557415903871,0.11280857325030985,4.32871675491333,-1.8339585065841675,-8.7268648147583,
1557415903933,0.04962124654321,4.299986362457275,,-8.647856712341309,
1557415903934,,,-1.8195933103561401,,
1557415903995,0.08077244854539427,4.292803764343262,-1.802833914756775,-8.722076416015625,
1557415904033,,,,,999.05859375
1557415942019,0.09458545124032626,,,,
1557415942020,,4.314351558685303,-1.843535304069519,-8.710105895996094,
1557415942048,0.10003603457359805,4.180276393890381,-1.7334020137786865,-8.669404029846191,
1557415942090,,,,,999.07421875
1557415942109,0.06827423379365823,4.252102375030518,-1.7741034030914307,-8.71728801727295,
1557415942168,0.1840768403553333,4.426878929138184,-1.8411411046981812,-8.710105895996094,
1557415942229,0.14362711603873454,4.405331134796143,-1.843535304069519,-8.655038833618164,
1557415942268,,,,,999.0869140625
1557415942291,0.15232806247244654,4.381389141082764,-1.7956513166427612,-8.75080680847168,
1557415942348,0.09641546209240764,4.314351558685303,-1.8148049116134644,-8.7268648147583,
1557415942409,0.1179444502757108,4.259284973144531,-1.7046716213226318,-8.731653213500977,
1557415942449,,,,,999.095458984375
1557415942469,0.034624522480873755,4.2544965744018555,-1.7597382068634033,-8.65982723236084,
1557415942529,0.057746828240218206,4.228160381317139,,,
1557415942530,,,-1.7549498081207275,-8.674192428588867,
1557415942590,0.11881718742599659,4.378994941711426,-1.8124107122421265,-8.69095230102539,
1557415942629,,,,,999.101318359375
1557415942649,0.14924211518867456,4.412513732910156,,,
1557415942650,,,-1.8339585065841675,-8.69334602355957,
1557415942709,0.2369153710664869,4.441244125366211,,,
1557415942710,,,-1.8124107122421265,-8.815450668334961,
1557415942770,0.014187751489624612,4.292803764343262,-1.766920804977417,-8.643068313598633,
1557415942810,,,,,999.096923828125
1557415942830,0.08435572540922483,4.2090067863464355,-1.7334020137786865,-8.616731643676758,
1557415942890,0.05405983529318035,4.235342979431152,-1.7405846118927002,-8.650250434875488,
1557415942950,0.13438956686285683,,,,
1557415942951,,4.357447147369385,-1.778891921043396,-8.753201484680176,
1557415942990,,,,,999.083984375
1557415943010,0.15515607921249042,4.443638324737549,,,
1557415943011,,,-1.7908629179000854,-8.676587104797363,
1557415943070,0.06140369160615118,4.345476150512695,-1.821987509727478,-8.655038833618164,
1557415943131,0.013553119052162926,4.2975921630859375,-1.8052281141281128,-8.631096839904785,
1557415943170,,,,,999.082275390625
1557415943190,0.034959419246824434,,,,
1557415943191,,4.2951979637146,-1.7621324062347412,-8.650250434875488,
1557415943252,0.09634049958738712,,,,
1557415943253,,4.371812343597412,-1.800439715385437,-8.69334602355957,
1557415943313,0.06482990990436677,4.345476150512695,-1.821987509727478,-8.664615631103516,
1557415943353,,,,,999.076171875
1557415943373,0.03691174875809186,4.326322555541992,,-8.59997272491455,
1557415943374,,,-1.7860745191574097,,
1557415943435,0.026093166187388255,4.285621166229248,-1.8076223134994507,-8.638279914855957,
1557415943496,0.06137314673117216,,,,
1557415943535,,,,,999.068115234375
1557415943556,0.08292190088901004,4.383783340454102,-1.7621324062347412,-8.631096839904785,
1557415943616,0.060918098732704755,4.3622355461120605,-1.800439715385437,-8.597578048706055,
1557415943676,0.010465859190940813,4.316745758056641,-1.7812861204147339,-8.621520042419434,
1557415943716,,,,,999.064208984375
1557415943736,0.07056559601547452,4.345476150512695,-1.7932571172714233,-8.686163902282715,
1557415943795,0.03689516664960506,,,,
1557415943796,,4.345476150512695,-1.8052281141281128,-8.616731643676758,
1557415943857,0.06127399254444991,4.302380561828613,-1.8171991109848022,-8.56884765625,
1557415943897,,,,,999.06494140625
1557415943917,0.05553277326935439,4.261679172515869,-1.7812861204147339,-8.643068313598633,
1557415943976,0.16976835177566948,,,,
1557415943977,,4.338293552398682,-1.800439715385437,-8.791508674621582,
1557415944041,0.21567306846604048,4.534617900848389,-1.8291701078414917,-8.580819129943848,
1557415944080,,,,,999.061279296875
1557415944100,0.04654659276740979,4.355052947998047,,-8.583212852478027,
1557415944101,,,-1.8171991109848022,,
1557415944161,0.04994728673627873,4.271255970001221,-1.8100165128707886,-8.62391471862793,
1557415944222,0.11717567384174901,4.240131378173828,,-8.724471092224121,
1557415944223,,,-1.7956513166427612,,
1557415944261,,,,,999.06591796875
1557415944282,0.05452138928420985,4.280832767486572,-1.742978811264038,-8.655038833618164,
1557415952015,0.0392179317408002,,,,
1557415952016,0.15820779911247776,4.326322555541992,-1.7836803197860718,-8.597578048706055,
1557415952027,0.14654780603982034,4.393360137939453,-1.8483237028121948,-8.731653213500977,
1557415952067,,,,,999.10693359375
1557415952086,0.14946370764842107,,,,
1557415952087,,4.390965938568115,-1.7836803197860718,-8.75080680847168,
1557415952147,0.057481557619939734,4.304774761199951,-1.7764976024627686,-8.681375503540039,
1557415952209,0.06539909515875006,4.273650169372559,-1.7764976024627686,-8.681375503540039,
1557415952249,,,,,999.106689453125
1557415952270,0.07822301497835538,4.28322696685791,-1.8076223134994507,-8.700529098510742,
1557415952330,0.14347229104521497,,,,
1557415952331,,4.388571739196777,-1.845929503440857,-8.729259490966797,
1557415952391,0.06421349150645149,4.326322555541992,-1.8052281141281128,-8.686163902282715,
1557415952430,,,,,999.107421875
1557415952450,0.055397440850133206,,,,
1557415952451,,4.304774761199951,-1.7884687185287476,-8.683769226074219,
1557415952512,0.05647875412268856,4.264073371887207,-1.7741034030914307,-8.669404029846191,
1557415952573,0.1128713987405422,4.316745758056641,-1.802833914756775,-8.741230010986328,
1557415952614,,,,,999.1025390625
1557415952633,0.06370760611332585,4.3406877517700195,-1.7908629179000854,-8.678980827331543,
1557415952695,0.05341882818322214,4.338293552398682,-1.7812861204147339,-8.667010307312012,
1557415952756,0.06758672502403046,4.307168960571289,-1.766920804977417,-8.695740699768066,
1557415952796,,,,,999.108154296875
1557415952816,0.09641310032227732,4.290409564971924,-1.845929503440857,-8.707711219787598,
1557415952878,0.05471698783420436,4.3191399574279785,-1.7956513166427612,-8.681375503540039,
1557415952937,0.0789833333232571,4.345476150512695,-1.7980455160140991,-8.69334602355957,
1557415952977,,,,,999.1015625
1557415952996,0.14953368515814083,,,,
1557415952997,,4.378994941711426,-1.867477297782898,-8.729259490966797,
1557415953056,0.0931186927429229,4.316745758056641,-1.7980455160140991,-8.722076416015625,
1557415953117,0.062289221557075364,4.256890773773193,-1.745373010635376,-8.655038833618164,
1557415953157,,,,,999.10400390625
1557415953176,0.027291637813377536,,,,
1557415953177,,4.302380561828613,-1.8100165128707886,-8.647856712341309,
1557415953236,0.10475860927795691,,,,
1557415953237,,4.345476150512695,-1.8387469053268433,-8.710105895996094,
1557415953298,0.09140413558992357,4.3406877517700195,-1.8148049116134644,-8.707711219787598,
1557415953338,,,,,999.113525390625
1557415953358,0.04694591314100099,4.343081951141357,-1.7980455160140991,-8.631096839904785,
1557415953417,0.07623209468017506,,,,
1557415953418,,4.247313976287842,-1.7501614093780518,-8.676587104797363,
1557415953478,0.0633699328472523,4.292803764343262,-1.766920804977417,-8.69334602355957,
1557415953518,,,,,999.1201171875
1557415953538,0.09220702784820467,4.331110954284668,-1.8171991109848022,-8.712499618530273,
1557415953598,0.1458674345563474,,,,
1557415953599,,4.400542736053467,-1.8387469053268433,-8.719682693481445,
1557415953659,0.06322032857009255,4.271255970001221,-1.7812861204147339,-8.695740699768066,
1557415953698,,,,,999.1162109375
1557415953719,0.07609672078926948,4.2329487800598145,-1.7357962131500244,-8.65982723236084,
1557415953779,0.07787402789728438,4.347870349884033,-1.7884687185287476,-8.688557624816895,
1557415953839,0.14438552211218852,4.3861775398254395,-1.800439715385437,-8.743624687194824,
1557415953879,,,,,999.112548828125
1557415953900,0.09346805336111341,4.347870349884033,-1.8148049116134644,-8.702922821044922,
1557415953960,0.02756794275839923,4.309563159942627,-1.7836803197860718,-8.65743350982666,
1557415954021,0.06305043901771634,4.290409564971924,-1.723825216293335,-8.667010307312012,
1557415954060,,,,,999.10107421875
1557415954080,0.08378202435471058,4.333505153656006,-1.7932571172714233,-8.707711219787598,
1557415954140,0.055743405613491406,4.338293552398682,-1.7693150043487549,-8.669404029846191,
1557415954201,0.054914866111466336,4.2760443687438965,-1.7310078144073486,-8.664615631103516,
1557415954240,,,,,999.10205078125
1557415954260,0.18952308424917472,4.434061527252197,,,
1557415954261,,,-1.8555063009262085,-8.741230010986328,
1557415954320,0.06853369217442404,,,,
1557415954321,,4.369418144226074,-1.7884687185287476,-8.635885238647461,
1557415954382,0.034962903931793514,4.268861770629883,,,
1557415954383,,,-1.7884687185287476,-8.640673637390137,
1557415954423,,,,,999.0986328125
1557415954444,0.04154945286614775,4.338293552398682,-1.800439715385437,-8.621520042419434,
1557415954504,0.08771632713740292,,,,
1557415954505,,4.32871675491333,-1.7980455160140991,-8.712499618530273,
1557415954566,0.04873206942496081,4.352658748626709,-1.7860745191574097,-8.631096839904785,
1557415954605,,,,,999.08447265625
1557415954625,0.07248530312392305,4.3622355461120605,-1.824381709098816,-8.647856712341309,
1557415954685,0.04356703738175538,4.3406877517700195,-1.8124107122421265,-8.633491516113281,
1557415954747,0.04227923407941839,4.338293552398682,-1.8171991109848022,-8.62391471862793,
1557415954787,,,,,999.07470703125
