timestamp,AmbientLightSensor,DecibelSource,PitchSensor,LinearAccelerometerSensor,AccX,AccY,AccZ,BarometerSensor,CompassSensor,MagneticRotationSensor
1557947772933,,30.994011337789274,,,,,,,,
1557947772942,,,,1.7721955239900151,-1.1348515748977661,0.7948749661445618,10.557232856750488,,159.08238675125222,33.407334749543466
1557947772993,,28.1774126341316,0.0,,,,,,,
1557947773013,,,,1.2252316392146694,-0.3734954595565796,1.1061211824417114,8.857349395751953,,161.60746670627088,34.00779430750847
1557947773014,48.0,,,,,,,1000.9599609375,,
1557947773033,48.0,26.730598051712782,,,,,,,,
1557947773053,,,,0.7667346231431756,-0.7661445140838623,1.8148049116134644,9.163806915283203,,160.99539979436773,34.358842406818084
1557947773073,,26.253354986601344,,,,,,,,
1557947773113,,24.894486924777446,0.0,,,,,,,
1557947773129,,,,,,,,,,34.88739136064237
1557947773130,,,,0.8583369835217337,-0.5171475410461426,2.3702597618103027,8.876502990722656,,161.0095246255713,
1557947773153,,25.40122134170336,,,,,,,,
1557947773164,48.0,,,,,,,,,
1557947773180,53.0,,,0.7555461303467444,-0.44532153010368347,1.7334020137786865,9.044096946716309,1000.9099731445313,162.53971922608594,35.61727171020863
1557947773194,,24.013619422931974,0.0,,,,,,,
1557947773246,,,,,,,,,,35.48830858621506
1557947773247,,,,1.4925812206820244,-0.40222588181495667,2.518700122833252,8.186972618103027,,163.73202436836004,
1557947773253,,23.583414108824634,,,,,,,,
1557947773281,53.0,,,,,,,,,
1557947773293,,24.421039757683474,0.0,,,,,,,
1557947773314,,,,0.943937578570182,,,8.670601844787598,,,35.73164061912829
1557947773315,,,,,-0.1867477297782898,2.255337953567505,,,166.44078177053873,
1557947773333,,24.89764450048299,,,,,,,,
1557947773373,,25.289340995477797,,,,,,,,
1557947773374,,,0.0,,,,,,,
1557947773382,56.0,,,0.941374338962524,-0.2585737705230713,2.9161376953125,8.852560997009277,1000.9299926757813,167.1319286126523,36.443517890338875
1557947773406,56.0,,,,,,,,,
1557947773413,,32.17028710950959,,,,,,,,
1557947773440,,,,,,,,,,36.86163471948802
1557947773441,,,,1.1438335075535773,-0.12928688526153564,3.0166940689086914,10.408791542053223,,169.77511619879886,
1557947773453,,35.47708892381928,,,,,,,,
1557947773463,,,75.23470052083333,,,,,,,
1557947773500,,,,,,,,,,37.31527992282577
1557947773501,,,,1.4429431361562028,0.019153613597154617,3.7924153804779053,9.733627319335938,,171.4150719392756,
1557947773513,,32.672752767068445,75.23470052083333,,,,,,,
1557947773533,56.0,,,,,,,,,
1557947773553,,31.439238357630103,75.23470052083333,,,,,,,
1557947773566,59.0,,,1.3167683360929097,,2.8778305053710938,10.739192008972168,1000.9199829101563,173.0050853365412,37.22405291646933
1557947773567,,,,,0.2585737705230713,,,,,
1557947773570,,,63.96087646484375,,,,,,,
1557947773593,,34.71316851604576,63.96087646484375,,,,,,,
1557947773632,,,,1.4563840190466415,0.1867477297782898,2.5474305152893066,10.854113578796387,,174.89389218923822,37.14121854456283
1557947773633,,31.576819603360452,63.96087646484375,,,,,,,
1557947773657,59.0,,,,,,,,,
1557947773673,,35.95904673426516,,,,,,,,
1557947773689,,,,1.2573856553558083,-0.16759411990642548,2.4612393379211426,10.255562782287598,,176.6057151801618,37.111455306632344
1557947773733,,36.59293544324741,,,,,,,,
1557947773742,,,65.830078125,,,,,,,
1557947773749,,,,,,,,,,37.87281431935557
1557947773750,57.0,,,2.5572321639483637,0.2585737705230713,0.9528923034667969,10.384849548339844,1000.9400024414063,180.31130135303454,
1557947773773,,33.573252801311774,65.830078125,,,,,,,
1557947773783,57.0,,,,,,,,,
1557947773813,,31.117125695863646,,,,,,,,
1557947773814,,,65.830078125,,,,,,,
1557947773818,,,,3.3318592308871997,,,11.285069465637207,,182.49453034009412,38.452699071454305
1557947773819,,,,,-0.004788403399288654,0.3016694188117981,,,185.5722682216151,
1557947773853,,29.419527286538845,65.830078125,,,,,,,
1557947773862,,,66.1767578125,,,,,,,
1557947773884,,,,,,,9.676166534423828,,,38.62706389607323
1557947773885,,,,1.7740842337366465,-0.2777273952960968,1.1348515748977661,,,185.1053018484397,
1557947773893,,28.07404294436088,66.1767578125,,,,,,,
1557947773901,57.0,,,,,,,,,
1557947773933,,27.054971038119533,66.1767578125,,,,,,,
1557947773936,,,,,,,10.217255592346191,,,38.183111632286405
1557947773937,,,,2.376430682878704,-0.21547815203666687,0.5602431893348694,,1001.0099487304688,187.76709486988534,
1557947773993,,25.492153479553327,,,,,,,,
1557947774001,,,,1.0804363298275745,,,8.593987464904785,,,37.94245796573785
1557947774002,,,,,-0.08140286058187485,2.0159177780151367,,,191.54998148131858,
1557947774018,57.0,,,,,,,,,
1557947774033,,26.29267274677757,,,,,,,,
1557947774034,,,0.0,,,,,,,
1557947774073,,,,1.4253226600892057,-0.5985504388809204,2.0877439975738525,10.796652793884277,,193.08338627074318,38.00460508701715
1557947774074,,24.000862638438107,,,,,,,,
1557947774113,,35.92007975001795,,,,,,,,
1557947774114,,,0.0,,,,,,,
1557947774143,,,,,,,10.791864395141602,,,38.53336243270867
1557947774144,54.0,,,1.332167990369619,-0.2585737705230713,2.4133553504943848,,1000.949951171875,197.64532425890798,
1557947774145,54.0,,,,,,,,,
1557947774153,,36.66673656737441,,,,,,,,
1557947774186,,,,1.4491389579090868,,,10.767922401428223,,,38.631724726375836
1557947774187,,,,,,,,,202.17750994304834,
1557947774193,,35.95975731623887,,,,,,,,
1557947774204,,,76.04329427083334,,0.05746084079146385,2.7916390895843506,,,,
1557947774253,,36.13812321958647,76.04329427083334,,,,,,,
1557947774271,,,,1.474681160297416,,,12.056002616882324,,210.82920128167677,38.79213837191684
1557947774272,54.0,,,,-0.9720458984375,3.227383852005005,,,,
1557947774293,,33.682879504877484,,,,,,,,
1557947774294,,,76.04329427083334,,,,,,,
1557947774313,49.0,,,2.7300636525820527,-1.5610195398330688,1.7764976024627686,11.500547409057617,1000.9299926757813,211.84445426028583,38.658893864728746
1557947774334,,30.963954312236048,,,,,,,,
1557947774373,,30.19908656778803,,,,,,,,
1557947774374,,,0.0,,,,,,,
1557947774398,49.0,,,2.0699464870299136,-1.7764976024627686,1.5849615335464478,10.380061149597168,,207.29863551856215,38.28550669543674
1557947774413,,30.971833515399553,,,,,,,,
1557947774440,,,,,,,9.05367374420166,,,38.42473105669681
1557947774441,,,,1.6671081037841424,-1.2258312702178955,1.556231141090393,,,211.79962089857383,
1557947774473,,31.477875560983158,,,,,,,,
1557947774501,,,,1.689023001718047,,,9.355342864990234,,,38.25428105201376
1557947774502,42.0,,,,-0.8188169598579407,1.4460978507995605,,1001.0099487304688,215.34182530403416,
1557947774513,,31.480339032457806,0.0,,,,,,,
1557947774526,42.0,,,,,,,,,
1557947774553,,27.616577292168742,,,,,,,,
1557947774568,,,,1.853823347846321,,,10.504559516906738,,,37.9529977848313
1557947774569,,,,,-0.8810662031173706,1.5083470344543457,,,215.8529010388695,
1557947774593,,27.32200613334038,0.0,,,,,,,
1557947774628,,,,1.1433539470912595,-0.9145850539207458,2.647987127304077,10.375272750854492,,218.76566253117812,37.703714745751114
1557947774633,,26.25226145225808,,,,,,,,
1557947774654,42.0,,,,,,,,,
1557947774673,,25.995857341120242,,,,,,,,
1557947774674,,,0.0,,,,,,,
1557947774698,29.0,,,0.5456624075267599,-0.689530074596405,2.8155810832977295,9.75278091430664,1000.9400024414063,221.53728499447766,37.21424473063893
1557947774733,,26.382947376609888,,,,,,,,
1557947774760,,,,,,,,,,37.18642270516867
1557947774761,,,,0.9354573248768765,-0.6512228846549988,2.7054479122161865,10.212467193603516,,223.7791853065076,
1557947774773,,26.1538227616326,0.0,,,,,,,
1557947774786,29.0,,,,,,,,,
1557947774813,,26.28058293348125,,,,,,,,
1557947774827,,,,0.7095758162268491,-0.22505496442317963,2.604891538619995,10.073603630065918,,226.44156572422185,36.43487358507925
1557947774853,,26.44958885317365,0.0,,,,,,,
1557947774886,,,,,,,,,,35.76730367804884
1557947774887,13.0,,,0.5409336234515215,0.3974374830722809,2.3080103397369385,9.446322441101074,1000.8899536132813,228.21723732350677,
1557947774893,,26.277535226608002,,,,,,,,
1557947774912,13.0,,,,,,,,,
1557947774934,,38.72334550713533,0.0,,,,,,,
1557947774955,,,,,,,,,,35.051248114616335
1557947774956,,,,1.016787582513273,0.26815059781074524,3.117250680923462,10.341753959655762,,230.99623639110985,
1557947774993,,39.23764414188741,,,,,,,,
1557947775014,,,,2.1137587594832663,-0.023942016065120697,3.155557870864868,11.323376655578613,,231.74658731294915,34.54316180525413
1557947775033,,35.47800079501197,,,,,,,,
1557947775041,,,69.453125,,,,,,,
1557947775042,13.0,,,,,,,,,
1557947775072,11.0,,,2.1920809055767623,,1.7956513166427612,10.787075996398926,,232.22853912116358,34.73470910203796
1557947775073,,,,,-0.1867477297782898,,,1000.9299926757813,,
1557947775075,,32.51774676353718,69.453125,,,,,,,
1557947775113,,35.27966847725315,69.453125,,,,,,,
1557947775124,,,100.0146484375,,,,,,,
1557947775135,,,,4.336935502402815,-1.656787633895874,1.9919757843017578,12.90833854675293,,228.5942501053131,34.408429669902596
1557947775152,11.0,,,,,,,,,
1557947775153,,36.552346571305144,100.0146484375,,,,,,,
1557947775197,,,,1.4279001038014378,0.24899697303771973,1.6519991159439087,8.943540573120117,,229.8642281588286,34.65977518161737
1557947775213,,33.590333794779205,100.0146484375,,,,,,,
1557947775253,,31.998087239150518,100.0146484375,,,,,,,
1557947775259,,,0.0,,,,,,,
1557947775272,,,,,,,10.255562782287598,,,34.69466996166389
1557947775273,9.0,,,1.298510932911591,0.2106897532939911,0.35913026332855225,,1000.8899536132813,231.93113902432287,
1557947775274,9.0,,,,,,,,,
1557947775293,,32.12982998879311,,,,,,,,
1557947775320,,,,1.70510070715913,0.9097966551780701,1.173158884048462,8.675390243530273,,231.55314269527605,33.953056255188486
1557947775333,,32.144965550035224,,,,,,,,
1557947775343,,,64.599609375,,,,,,,
1557947775373,,31.083817741394135,64.599609375,,,,,,,
1557947775389,9.0,,,1.2218249727822639,0.0,1.7717092037200928,8.881291389465332,,233.76156141999456,33.726103300989564
1557947775413,,27.638291094748535,64.599609375,,,,,,,
1557947775414,,,0.0,,,,,,,
1557947775457,,,,,,,,,,33.89306842527356
1557947775458,25.0,,,1.2096501552421646,-0.35434186458587646,3.064578056335449,8.412027359008789,1000.8399658203125,236.07825230343622,
1557947775473,,27.756256158918738,,,,,,,,
1557947775513,,25.76239940589182,,,,,,,,
1557947775514,,,0.0,,,,,,,
1557947775517,,,,,,,,,,33.541765829062165
1557947775518,25.0,,,1.5652126416419938,-0.29209262132644653,3.3518824577331543,7.966706275939941,,245.86315398763975,
1557947775553,,26.77615506230311,,,,,,,,
1557947775589,,,,1.406628112822068,,,10.542867660522461,,238.95903485005078,32.97120015517864
1557947775590,,,,,-0.5123591423034668,2.7006595134735107,,,241.18782119887436,
1557947775593,,26.409206646525504,0.0,,,,,,,
1557947775635,,27.618037656325058,,,,,,,,
1557947775650,30.0,,,1.2734610432513804,-0.5937620401382446,3.1747114658355713,10.925939559936523,1000.8999633789063,241.6609757234378,33.23341726281663
1557947775693,,48.10891240171387,,,,,,,,
1557947775702,,,1392.0166015625,,,,,,,
1557947775721,,,,,,,10.9307279586792,,,32.490152801548874
1557947775722,,,,2.097246353762853,-1.2449848651885986,2.6575639247894287,,,240.07832527009748,
1557947775733,,41.650978853721654,1392.0166015625,,,,,,,
1557947775773,,39.08370398266151,1392.0166015625,,,,,,,
1557947775775,,,,,,,,,,32.1703291922468
1557947775776,30.0,,,3.0649256539467955,-1.9919757843017578,1.5610195398330688,11.859678268432617,,238.29735344401666,
1557947775813,,37.98526813876694,,,,,,,,
1557947775836,25.0,,,2.874361879601242,-2.38462495803833,1.3215993642807007,11.529278755187988,1000.9599609375,246.30665183082704,31.9529347661332
1557947775853,,37.19647974052421,,,,,,,,
1557947775887,25.0,,,,,,,,,
1557947775888,,,,1.4406541138725393,,1.2737152576446533,10.078392028808594,,246.09204728710523,31.54853472926824
1557947775889,,,,,-1.6424223184585571,,,,,
1557947775893,,36.88855121935953,,,,,,,,
1557947775906,,,232.60534958612354,,,,,,,
1557947775907,,,232.60534958612354,,,,,,,
1557947775951,,,,1.7262467315664984,-1.824381709098816,1.8483237028121948,10.51413631439209,,252.21982663306306,31.726803987885507
1557947775953,,33.63935386901104,232.60534958612354,,,,,,,
1557947775993,,33.25098777008205,,,,,,,,
1557947775994,,,232.60534958612354,,,,,,,
1557947776001,25.0,,,,,,,,,
1557947776004,,,189.931640625,,,,,,,
1557947776017,,,,,,,,,,31.472369304521685
1557947776018,7.0,,,1.4068576347672386,-1.3311761617660522,2.3558945655822754,9.211690902709961,1000.9199829101563,261.56467288942105,
1557947776033,,30.916453448999928,189.931640625,,,,,,,
1557947776073,,30.12586580990647,189.931640625,,,,,,,
1557947776079,,,,,,,,,,31.89278896527715
1557947776080,,,,1.7325003175060867,-0.933738648891449,1.9105730056762695,8.134300231933594,,259.97276752975534,
1557947776113,,29.727934856455178,,,,,,,,
1557947776121,7.0,,,,,,,,,
1557947776141,,,,1.1771432079289532,,,9.096769332885742,,,32.337439700300095
1557947776142,,,,,-0.933738648891449,2.1547815799713135,,,262.0309562436795,
1557947776153,,29.566395812981412,0.0,,,,,,,
1557947776212,,,,1.124224183345811,,,9.364919662475586,,,32.337439700300095
1557947776213,5.0,34.40941862718281,,,,2.5953147411346436,,,262.28108460127453,
1557947776214,,,,,-0.45489832758903503,,,1000.9099731445313,,
1557947776253,,31.957937456395555,,,,,,,,
1557947776254,5.0,,,,,,,,,
1557947776262,,,159.3896484375,,,,,,,
1557947776263,,,159.3896484375,,,,,,,
1557947776272,,,,1.8755147863062995,-0.47405192255973816,2.853888511657715,10.949881553649902,,263.2212738009051,38.5406284216902
1557947776293,,31.100150754477035,159.3896484375,,,,,,,
1557947776333,,32.59111360119222,159.3896484375,,,,,,,
1557947776334,,,0.0,,,,,,,
1557947776340,,,,2.0327309711594497,0.3878606855869293,1.479616641998291,11.682507514953613,,260.9554268456451,39.06225856419528
1557947776373,,45.310519703430316,,,,,,,,
1557947776384,5.0,,,,,,,,,
1557947776402,,,,2.0376538786089284,0.5123591423034668,2.1547815799713135,12.33372974395752,1000.8999633789063,259.55893319813345,39.06225856419528
1557947776433,,39.43848812283322,,,,,,,,
1557947776443,,,146.871826171875,,,,,,,
1557947776470,,,,,,,12.24275016784668,,,39.748585151587974
1557947776471,,,,2.56663245099864,-0.15801730751991272,1.4413094520568848,,,258.6824901540266,
1557947776475,,38.25563368405623,146.871826171875,,,,,,,
1557947776513,,37.26654548931221,146.871826171875,,,,,,,
1557947776517,5.0,,,,,,,,,
1557947776526,,,216.50390625,,,,,,,
1557947776532,,,,2.0675011314010754,0.33518823981285095,-0.272938996553421,11.160571098327637,,250.1541998431328,37.392111857239186
1557947776553,,34.36508016391695,216.50390625,,,,,,,
1557947776593,,34.94210921630895,216.50390625,,,,,,,
1557947776600,,,,,,,10.327388763427734,,,33.77706395075365
1557947776601,,,,2.0220889749165956,0.4165911078453064,0.7374141216278076,,1000.9299926757813,250.591106553771,
1557947776633,,34.02881654328593,216.50390625,,,,,,,
1557947776643,5.0,,,,,,,,,
1557947776660,,,,0.206539758246971,0.2537853717803955,1.2976573705673218,9.882067680358887,,257.8217770355783,34.21827081994508
1557947776693,,34.48269729238622,,,,,,,,
1557947776730,,,,0.6317716680795344,0.7805097699165344,0.9481038451194763,9.32661247253418,,259.0181119894627,34.00382408823675
1557947776733,,35.4318207237327,,,,,,,,
1557947776743,,,157.2021484375,,,,,,,
1557947776773,4.0,34.26169292683467,157.2021484375,0.7147034053925786,0.45010992884635925,2.0829553604125977,9.254786491394043,1000.8800048828125,266.03589230502985,39.71511132837623
1557947776774,4.0,,,,,,,,,
1557947776813,,34.49245311560661,157.2021484375,,,,,,,
1557947776829,,,158.45458984375,,,,,,,
1557947776837,,,,0.84810984907905,,,9.139864921569824,,,40.22163590517305
1557947776838,,,,,1.091755986213684,1.2976573705673218,,,268.2847867307699,
1557947776853,,34.340396012253514,158.45458984375,,,,,,,
1557947776893,,34.041744902731324,158.45458984375,,,,,,,
1557947776902,,,158.20719401041669,,,,,,,
1557947776911,,,,,,,,,,40.22163590517305
1557947776912,4.0,,,0.983119042263907,0.26815059781074524,2.389413356781006,10.29865837097168,,276.35800202783327,
1557947776953,,32.465884596608205,158.20719401041669,,,,,,,
1557947776968,,,,0.8715331333666249,,1.7717092037200928,10.327388763427734,1000.9199829101563,274.3026000310905,38.99679532822839
1557947776969,,,,,0.1867477297782898,,,,,
1557947776993,,34.05239609325454,158.20719401041669,,,,,,,
1557947777033,,38.082639830526816,,,,,,,,
1557947777035,4.0,,,2.690766766542792,-0.8331822156906128,0.9528923034667969,11.783063888549805,,263.33056365781454,37.891688260542864
1557947777073,,33.59995962268741,,,,,,,,
1557947777083,,,43.29310825892857,,,,,,,
1557947777092,,,,,,,10.983400344848633,,,33.42603825858973
1557947777093,,,,2.8447439950761777,-1.3503297567367554,-0.043095629662275314,,,254.86229704934675,
1557947777113,,32.07156332224756,43.29310825892857,,,,,,,
1557947777160,3.0,,,2.455838591698681,-1.2449848651885986,0.028730420395731926,8.737639427185059,1000.8299560546875,255.18244850631277,33.06886804329268
1557947777173,,30.857319638999364,43.29310825892857,,,,,,,
1557947777213,,32.13720109448427,,,,,,,,
1557947777219,,,,2.3516440139786137,-2.4899697303771973,0.790086567401886,10.499771118164063,,259.6811321125742,33.241390134041005
1557947777253,,34.30628678727114,,,,,,,,
1557947777291,,,,3.081235601612055,-2.537853717803955,2.7246015071868896,11.198878288269043,,277.95548765205086,32.39722263432633
1557947777292,3.0,,,,,,,,,
1557947777296,,30.829548900404916,,,,,,,,
1557947777308,,,82.45802525111607,,,,,,,
1557947777333,,28.38089526140405,82.45802525111607,,,,,,,
1557947777348,2.0,,,3.1537320508230677,-1.9488801956176758,1.7046716213226318,12.012907028198242,1000.8399658203125,286.1750397520818,32.343315134267115
1557947777373,,27.93771110409005,82.45802525111607,,,,,,,
1557947777408,,,,1.9830918856986994,-1.7046716213226318,2.231395959854126,9.249998092651367,,284.81850954140384,32.500770272150206
1557947777409,2.0,,,,,,,,,
1557947777433,,27.258452993599,,,,,,,,
1557947777466,,,,1.481403387956336,-1.9776105880737305,1.5466543436050415,8.6897554397583,,285.1186075629667,32.58557934220567
1557947777473,,25.33142915683174,0.0,,,,,,,
1557947777513,,24.509279647122916,,,,,,,,
1557947777525,2.0,,,,,,,,,
1557947777529,,,,1.1950734217286165,-1.8291701078414917,1.2689268589019775,7.349001884460449,1000.8599853515625,285.20668285231403,32.58557934220567
1557947777553,,24.943560928495682,0.0,,,,,,,
1557947777592,,,,1.0523376283418016,-2.3558945655822754,0.9911994934082031,8.905233383178711,,281.33326208343226,32.641231297586344
1557947777593,,28.899066081608282,,,,,,,,
1557947777633,,25.41845656375664,0.0,,,,,,,
1557947777642,2.0,,,,,,,,,
1557947777656,,,,0.7579101420941847,-2.140416383743286,1.8770540952682495,8.957905769348145,,283.9807868397018,31.812733891045145
1557947777693,,29.052284768357076,,,,,,,,
1557947777724,5.0,,,0.5778719373948197,-2.829946517944336,1.3551181554794312,11.620258331298828,1000.8599853515625,279.0229642570538,31.588922940680074
1557947777734,,42.49603930005094,,,,,,,,
1557947777746,,,167.8125,,,,,,,
1557947777773,5.0,39.06962798312624,167.8125,,,,,,,
1557947777792,,,,2.173288557706918,-0.9624691009521484,0.9720458984375,7.7655930519104,,272.29785071723256,31.28114531424248
1557947777813,,37.13608568491179,167.8125,,,,,,,
1557947777824,,,97.3759765625,,,,,,,
1557947777853,,54.14100006580435,97.3759765625,,,,,,,
1557947777857,,,,,,,,,,30.829532266970084
1557947777858,,,,2.6292127682794693,-2.7964274883270264,-2.250549554824829,11.648988723754883,,271.6959812777602,
1557947777890,5.0,,,,,,,,,
1557947777913,,46.39109176306323,97.3759765625,,,,,,,
1557947777922,,,80.3662109375,,,,,,,
1557947777923,,,,,,,,,,32.4254539123417
1557947777924,6.0,,,1.0970474672714838,-1.6136919260025024,-0.090979665517807,8.790311813354492,1000.8299560546875,264.3504475046808,
1557947777953,,34.25028213492097,80.3662109375,,,,,,,
1557947777976,,,,0.9980865291474118,-1.9823989868164063,1.1252747774124146,9.3026704788208,,274.20421115609645,37.107009642954786
1557947777993,,34.2253555306789,80.3662109375,,,,,,,
1557947778006,6.0,,,,,,,,,
1557947778033,,33.43374945346638,80.3662109375,,,,,,,
1557947778040,,,,2.748277905261686,-0.6655880808830261,0.9528923034667969,7.100005149841309,,279.005014519915,38.54633760582542
1557947778046,,,49.313528878348215,,,,,,,
1557947778073,,31.426408479269014,49.313528878348215,,,,,,,
1557947778113,,31.908004714504315,49.313528878348215,,,,,,,
1557947778119,5.0,,,1.4129096120877414,-1.335964560508728,-0.9528923034667969,8.584410667419434,1000.8399658203125,273.73869278302504,42.27410511623998
1557947778134,5.0,,,,,,,,,
1557947778162,,,,1.8408585197875114,-1.4269442558288574,1.158793568611145,8.397662162780762,,286.60727461332766,40.39777200617313
1557947778173,,31.630314798284417,,,,,,,,
1557947778213,,29.815671017054107,0.0,,,,,,,
1557947778230,,,,0.20924893683501844,-2.691082715988159,0.26336219906806946,9.412803649902344,,283.70169164983673,39.76355220837943
1557947778253,,29.547245399301083,,,,,,,,
1557947778272,5.0,,,,,,,,,
1557947778287,,,,1.008793671145995,,,11.682507514953613,,,36.21891888951842
1557947778288,,,,,-1.9967641830444336,0.7805097699165344,,1000.8499755859375,296.8025272326765,
1557947778293,,44.0366583621757,,,,,,,,
1557947778306,,,49.13975306919643,,,,,,,
1557947778333,,40.656352971931426,49.13975306919643,,,,,,,
1557947778354,,,,2.7755722211987806,-3.179499864578247,0.028730420395731926,10.78228759765625,,295.40976969864084,38.779117995684146
1557947778373,,37.36303191986138,49.13975306919643,,,,,,,
1557947778384,,,45.4918212890625,,,,,,,
1557947778396,5.0,,,,,,,,,
1557947778411,,,,3.1143493734580416,-2.078166961669922,1.6663644313812256,11.514912605285645,,307.61918363252386,39.449715459302716
1557947778433,,36.39901327853861,45.4918212890625,,,,,,,
1557947778473,,34.63330090494046,45.4918212890625,,,,,,,
1557947778479,,,,3.6117326706888875,,,12.391190528869629,,320.3006148644735,39.651229382826465
1557947778480,2.0,,,,-2.3271639347076416,-0.33039984107017517,,1000.7799682617188,,
1557947778513,,35.445123871604736,,,,,,,,
1557947778519,2.0,,,,,,,,,
1557947778553,,31.79090479367708,,,,,,,,
1557947778563,,,98.515625,,,,,,,
1557947778566,,,,1.3971812823453096,-0.5985504388809204,1.2401964664459229,8.991424560546875,,312.5473358734173,39.53605967336464
1557947778593,,30.853853579213432,98.515625,,,,,,,
1557947778600,,,,,,,8.699332237243652,,,39.39860421530666
1557947778601,,,,2.8615172652397427,-2.1499931812286377,1.2306196689605713,,,336.2786249464988,
1557947778641,2.0,,,,,,,,,
1557947778653,,31.302049019794932,98.515625,,,,,,,
1557947778681,,,,,,,9.355342864990234,,,39.82900931512856
1557947778682,4.0,,,3.0023498868618974,-1.2976573705673218,1.5275006294250488,,1000.8399658203125,326.52288304740927,
1557947778693,,29.15898661869847,98.515625,,,,,,,
1557947778725,,,,1.6454610121775708,-0.7757213711738586,1.5753847360610962,9.283516883850098,,314.21261795533644,39.82900931512856
1557947778733,,28.59909740861415,,,,,,,,
1557947778766,4.0,,,,,,,,,
1557947778773,,29.745016181859153,0.0,,,,,,,
1557947778811,,,,1.7431382121245014,-0.7996633648872375,1.8914192914962769,9.470264434814453,,316.1336701311051,40.41992079533099
1557947778813,,28.588190666589334,,,,,,,,
1557947778853,,28.931121573633565,0.0,,,,,,,
1557947778857,5.0,,,1.6443823522724537,,1.4891934394836426,10.121487617492676,1000.8599853515625,316.5288102349686,39.996749871773055
1557947778858,,,,,-0.6224924325942993,,,,,
1557947778901,5.0,,,,,,,,,
1557947778913,,29.602301463851916,,,,,,,,
1557947778917,,,,1.6360869360351895,-1.2641384601593018,1.0055646896362305,10.049661636352539,,313.0045282458904,40.00512526387764
1557947778953,,29.2801611607021,,,,,,,,
1557947778954,,,0.0,,,,,,,
1557947778984,,,,2.6441204704275085,0.06703764945268631,0.5889736413955688,12.376825332641602,,299.29366797770933,39.779518604463206
1557947778993,,44.98254238344086,,,,,,,,
1557947779025,5.0,,,,,,,,,
1557947779035,,40.834610367706745,,,,,,,,
1557947779056,,,491.732177734375,,,,,,,
1557947779059,3.0,,,2.7482851924192384,0.6368576288223267,0.5363011956214905,11.371260643005371,1000.8399658203125,298.9582988592726,40.01312230396988
1557947779073,,40.0599630545147,491.732177734375,,,,,,,
1557947779107,,,,2.9406464951932563,1.3407529592514038,0.11013327538967133,12.630611419677734,,292.8636117798435,40.01312230396988
1557947779113,,37.875004719304016,491.732177734375,,,,,,,
1557947779147,3.0,,,,,,,,,
1557947779173,,36.830903979455215,,,,,,,,
1557947779174,,,,2.076815084763511,0.6703764796257019,-0.9816226959228516,11.328165054321289,,287.2289652617714,39.33204762916782
1557947779213,,36.14498501556021,,,,,,,,
1557947779230,,,47.168143136160715,,,,,,,
1557947779233,,,,,,,,,,39.3483162137986
1557947779234,2.0,,,2.0126212752864348,0.7326257228851318,-0.08619125932455063,9.791088104248047,1000.8099975585938,290.6517984511074,
1557947779253,,35.26136597043835,47.168143136160715,,,,,,,
1557947779271,2.0,,,,,,,,,
1557947779293,,33.26229472211328,47.168143136160715,,,,,,,
1557947779297,,,,1.8317388044920815,1.072602391242981,0.45010992884635925,7.933187484741211,,298.2713867344444,39.53062224819244
1557947779333,,32.19090518057075,,,,,,,,
1557947779358,,,,1.0713360201507787,1.1204863786697388,0.4692635238170624,8.756793022155762,,301.1196370900422,39.23990420692411
1557947779393,,31.158539714175085,,,,,,,,
1557947779401,2.0,,,,,,,,,
1557947779428,,,,,,,,,,39.909021940813574
1557947779433,,29.89504972381632,0.0,,,,,,,
1557947779473,,30.385255760470393,,,,,,,,
1557947779487,,,,0.8846356968078679,0.08619125932455063,0.4165911078453064,9.455899238586426,,305.6155817904464,39.03037245314446
1557947779513,,29.447275620425614,0.0,,,,,,,
1557947779527,3.0,,,,,,,,,
1557947779553,,27.688407432184295,,,,,,,,
1557947779554,,,,1.2647079159215397,0.2968810200691223,1.2497732639312744,9.331400871276855,,310.3013852592095,39.71712540876385
1557947779593,,28.52722958256293,,,,,,,,
1557947779594,,,0.0,,,,,,,
1557947779614,,,,,,,11.735179901123047,,,40.38824276230804
1557947779615,,,,1.447081848914105,0.7374141216278076,1.359906554222107,,1000.8200073242188,314.1932851048907,
1557947779653,,37.3708773519115,,,,,,,,
1557947779656,3.0,,,,,,,,,
1557947779682,,,,,,,,,,40.78529314435954
1557947779683,,,,2.8486994335713254,0.4884171485900879,1.5466543436050415,12.11825180053711,,313.4424185037691,
1557947779693,,36.662081681132776,,,,,,,,
1557947779715,,,47.569754464285715,,,,,,,
1557947779733,,34.521505927037445,47.569754464285715,,,,,,,
1557947779746,,,,4.402556041077072,-0.7326257228851318,0.2585737705230713,13.578715324401855,,314.7746673919476,40.267605753131164
1557947779773,,32.79660766408816,47.569754464285715,,,,,,,
1557947779783,,,43.10546875,,,,,,,
1557947779789,3.0,,,,,,,,,
1557947779813,,32.53107204869441,43.10546875,,,,,,,
1557947779815,,,,4.52925981684926,,,15.087061882019043,,319.4159414424168,40.13589618796724
1557947779816,2.0,,,,-0.31124621629714966,-0.9911994934082031,,1000.8699951171875,312.36568699244077,
1557947779853,,31.878434429155973,43.10546875,,,,,,,
1557947779860,,,,2.4488375183012936,-0.28730419278144836,0.9002198576927185,9.637859344482422,,321.51732427265205,40.233445348217636
1557947779913,,32.66835729389517,,,,,,,,
1557947779922,2.0,,,,,,,,,
1557947779948,,,,1.361594569485433,,,9.99220085144043,,,39.55451900548007
1557947779949,,,,,0.790086567401886,0.6655880808830261,,,316.5189303663342,
1557947779953,,33.45270475311064,,,,,,,,
1557947779963,,,45.1220703125,,,,,,,
1557947779993,,32.24383723926162,45.1220703125,,,,,,,
1557947779997,,,,1.2533512491525016,-0.8475474119186401,1.3551181554794312,7.473500728607178,1000.7999877929688,313.13585570815684,38.53569723113997
1557947780033,,31.063403692800044,45.1220703125,,,,,,,
1557947780054,2.0,,,1.3883962880882028,0.9193734526634216,1.4221558570861816,8.641871452331543,,316.3163742763083,38.55437665801272
1557947780073,,31.436489849514263,45.1220703125,,,,,,,
1557947780121,,,,3.0937908439637365,1.2497732639312744,2.1164743900299072,6.76002836227417,,315.7762190110816,38.52129226259897
1557947780133,,31.646068635913092,,,,,,,,
1557947780173,,29.92781493882977,0.0,,,,,,,
1557947780178,,,,1.0284473018358808,1.0965443849563599,1.5179238319396973,9.96825885772705,1000.7899780273438,310.41040532364667,38.65190784340009
1557947780179,2.0,,,,,,,,,
1557947780213,,29.46836677580754,,,,,,,,
1557947780247,,,,2.6301172423247645,0.004788403399288654,1.0630255937576294,11.218031883239746,,311.603062220663,38.30261066194456
1557947780253,,29.41748432782923,0.0,,,,,,,
1557947780293,,30.857143245106986,,,,,,,,
1557947780303,,,,2.6516216570448687,,,12.089521408081055,,,38.16726323878933
1557947780304,2.0,,,,2.2170307636260986,1.1875240802764893,,,300.885088393944,
1557947780333,,43.81301423561154,,,,,,,,
1557947780354,,,178.0322265625,,,,,,,
1557947780379,,,,,,,,,,37.844021704759186
1557947780380,,,,2.698423762637161,,0.9289502501487732,10.595540046691895,,297.3816043308885,
1557947780381,1.0,,,,2.8347349166870117,,,1000.7799682617188,,
1557947780393,,38.33000973966571,178.0322265625,,,,,,,
1557947780426,1.0,,,,,,,,,
1557947780433,,37.485273081843225,178.0322265625,,,,,,,
1557947780440,,,,5.555762335849716,,0.5123591423034668,14.895525932312012,,292.75962897991917,37.62406116315482
1557947780441,,,,,3.2178070545196533,,,,,
1557947780448,,,118.6357421875,,,,,,,
1557947780473,,36.230370460509114,118.6357421875,,,,,,,
1557947780508,,,,0.4066497779717538,2.5330653190612793,1.0055646896362305,9.221267700195313,,293.15403825354156,37.62406116315482
1557947780513,,36.207672064617356,118.6357421875,,,,,,,
1557947780550,1.0,,,,,,,,,
1557947780553,,34.87910656559204,,,,,,,,
1557947780568,,,,,,,8.210914611816406,,,38.00486782768162
1557947780569,,,,0.8406790194827768,1.8387469053268433,0.6799532771110535,,1000.8299560546875,298.3237333042434,
1557947780593,,34.856530451459726,,,,,,,,
1557947780604,,,200.0341796875,,,,,,,
1557947780618,,,,0.9030807589878262,1.9728221893310547,0.26336219906806946,8.919598579406738,,295.89514343162944,38.3176198075595
1557947780653,,34.53904697164071,200.0341796875,,,,,,,
1557947780687,,,,,,,7.947552680969238,,,38.69160095270611
1557947780688,1.0,,,1.6188316648643493,2.1068975925445557,1.3694833517074585,,,303.2416812425168,
1557947780693,,33.626936958317216,200.0341796875,,,,,,,
1557947780733,,32.6737440077032,,,,,,,,
1557947780747,,,,1.557976315990437,2.2218191623687744,1.1779472827911377,9.39365005493164,1000.7599487304688,307.41926399551755,38.783501288937344
1557947780773,,32.17184715345315,,,,,,,,
1557947780813,,32.1219787325995,,,,,,,,
1557947780815,,,,1.2460791129565008,,,8.603564262390137,,,38.6088067113349
1557947780816,1.0,,,,1.4460978507995605,1.5322890281677246,,,311.6882244343293,
1557947780823,,,42.654296875,,,,,,,
1557947780873,,32.259862618205844,42.654296875,,,,,,,
1557947780875,,,,2.8042143951329486,,,12.281057357788086,,312.7578798696775,38.44125329674775
1557947780876,,,,,1.8483237028121948,1.5610195398330688,,,316.0105901222614,
1557947780913,,35.17921933713693,42.654296875,,,,,,,
1557947780943,1.0,,,2.741522466544878,-0.9193734526634216,1.0821791887283325,11.203666687011719,1000.8099975585938,318.8298941361568,38.698450098371836
1557947780953,,40.71261156749331,,,,,,,,
1557947780993,,37.005123103610295,,,,,,,,
1557947781010,,,82.15380859375,,,,,,,
1557947781014,,,,4.342005537186812,,0.689530074596405,12.922703742980957,,333.14038866440427,38.78040845426672
1557947781015,,,,,-1.2832920551300049,,,,,
1557947781033,,35.37750050924399,82.15380859375,,,,,,,
1557947781057,,,,3.1731773671789387,-0.9768342971801758,0.6224924325942993,11.423933029174805,,333.64750459706835,38.78040845426672
1557947781073,,33.20116955524198,82.15380859375,,,,,,,
1557947781083,1.0,,,,,,,,,
1557947781126,,,,2.7882921880805176,-2.2601263523101807,-0.24420857429504395,10.538078308105469,1000.7799682617188,333.64750459706835,38.78040845426672
1557947781133,,34.25223855613641,,,,,,,,
1557947781173,,35.69435057231361,,,,,,,,
1557947781184,,,50.89680989583333,,,,,,,38.178135752717395
1557947781185,,,,2.2320954759201155,-1.4987702369689941,0.004788403399288654,11.222820281982422,,335.75794767323765,
1557947781211,1.0,,,,,,,,,
1557947781213,,32.59193934240951,,,,,,,,
1557947781214,,,50.89680989583333,,,,,,,
1557947781253,,31.674225719349526,,2.9495977095104373,1.1683704853057861,-0.507570743560791,7.162254333496094,,306.36382218383216,39.171673942326876
1557947781254,,,50.89680989583333,,,,,,,
1557947781293,,30.929356411881198,,,,,,,,
1557947781312,,,,2.9173519601012226,5.904101371765137,2.9544448852539063,5.826289653778076,1000.739990234375,299.92811741952266,39.965235774779984
1557947781333,,39.409414561773744,,,,,,,,
1557947781341,,,236.865234375,,,,,,,
1557947781343,1.0,,,,,,,,,
1557947781382,,,,6.255080332678528,2.7293899059295654,2.3702597618103027,6.199785232543945,,294.5826542807198,39.40482313290932
1557947781393,,32.205516670066025,236.865234375,,,,,,,
1557947781433,,32.82816405996445,236.865234375,,,,,,,
1557947781440,,,,1.6314690278433899,0.3878606855869293,1.4891934394836426,8.392873764038086,,315.52616237047283,38.48792121560078
1557947781467,1.0,,,,,,,,,
1557947781473,,32.457557594383616,236.865234375,,,,,,,
1557947781510,,,,,,,,,,38.48792121560078
1557947781511,,,,1.6171705457010577,1.0199298858642578,1.7334020137786865,10.102334022521973,1000.719970703125,312.6029780094908,
1557947781513,,32.90094229963498,,,,,,,,
1557947781553,,36.84873307983978,,,,,,,,
1557947781565,,,47.822265625,,,,,,,
1557947781571,,,,3.1555933505318614,-0.7086837291717529,2.9017724990844727,8.057685852050781,,328.76374858578,39.640888771078735
1557947781598,1.0,,,,,,,,,
1557947781613,,40.84771208722665,47.822265625,,,,,,,
1557947781641,,,,12.801278908734812,-2.4420857429504395,-2.207453966140747,22.341493606567383,,294.37200441652743,40.09900305976097
1557947781653,,39.97295396216647,47.822265625,,,,,,,
1557947781690,,,,,,,,,,40.81470410130491
1557947781691,,,,12.899839864520546,0.05746084079146385,-0.7709329724311829,14.12938117980957,1000.7599487304688,296.1925913397943,
1557947781693,,36.489234555274564,,,,,,,,
1557947781733,,34.647625412857536,,,,,,,,
1557947781737,1.0,,,,,,,,,
1557947781747,,,117.6943359375,,,,,,,
1557947781754,,,,3.8961727926016794,1.5179238319396973,-1.9776105880737305,13.291410446166992,,286.5277097396862,40.193160243831976
1557947781773,,35.643984306655334,117.6943359375,,,,,,,
1557947781813,,35.00035969983292,117.6943359375,,,,,,,
1557947781824,,,78.18094889322916,1.3399752449481948,,,9.010578155517578,,296.29779674358,39.3681347532596
1557947781825,,,,,1.987187385559082,-0.3734954595565796,,,301.6395442594744,
1557947781866,1.0,,,,,,,,,
1557947781873,,31.8363041942753,78.18094889322916,,,,,,,
1557947781881,,,,,,,,,,39.07147406584633
1557947781882,,,,1.0992435368479552,2.1164743900299072,-0.9385270476341248,9.54209041595459,1000.739990234375,303.1880984084781,
1557947781913,,31.201142721987573,78.18094889322916,,,,,,,
1557947781923,,,44.779296875,,,,,,,
1557947781953,,30.706534506681603,44.779296875,,,,,,,
1557947781957,,,,2.864927144081251,1.2497732639312744,0.9959878921508789,6.89410400390625,,312.4185936377517,38.81558922898897
1557947781993,,28.996543853844624,44.779296875,,,,,,,
1557947781994,,,0.0,,,,,,,
1557947782005,1.0,,,1.5347526349736207,2.054224967956543,-0.35434186458587646,9.475052833557129,,305.55081452164177,38.45581836405507
1557947782033,,29.24496540521226,,,,,,,,
1557947782091,,,,0.932206467868061,,1.522712230682373,9.29309368133545,,320.22032599078,38.63482831334016
1557947782092,,,,,1.1348515748977661,,,1000.699951171875,,
1557947782094,,30.34338253580237,0.0,,,,,,,
1557947782132,,,,,,,,,,38.20471122210204
1557947782133,1.0,33.85627868637492,,1.4691757234469833,2.3702597618103027,0.8331822156906128,8.814253807067871,,310.1573673054652,
1557947782173,,33.306950519632395,,,,,,,,
1557947782193,,,,1.289437164420496,0.3447650372982025,1.8770540952682495,10.413579940795898,,326.2879962569471,37.90237410917525
1557947782213,,34.233260164078715,,,,,,,,
1557947782225,,,73.1849365234375,,,,,,,
1557947782253,,40.801031802723,73.1849365234375,,,,,,,
1557947782270,,,,2.309930456361472,1.3311761617660522,1.0821791887283325,11.864466667175293,1000.739990234375,319.26047267652893,37.50773178908714
1557947782271,1.0,,,,,,,,,
1557947782293,,39.607501735436855,73.1849365234375,,,,,,,
1557947782306,,,81.06706891741072,,,,,,,
1557947782329,,,,4.06027066611083,-0.689530074596405,2.1978771686553955,13.401543617248535,,335.19003110412945,37.64757581609329
1557947782353,,37.753656788570204,81.06706891741072,,,,,,,
1557947782393,,36.843746770672965,81.06706891741072,,,,,,,
1557947782397,,,,4.575620206891079,,,14.100650787353516,,,38.04970605764256
1557947782398,1.0,,,,0.646434485912323,0.7374141216278076,,,322.71075639613923,
1557947782433,,35.10319384885062,,,,,,,,
1557947782458,,,,2.156552279748981,-0.871489405632019,1.5275006294250488,10.988188743591309,1000.719970703125,337.8841753165789,37.569404069623054
1557947782473,,34.84413960145205,,,,,,,,
1557947782484,,,100.921630859375,,,,,,,
1557947782508,,,,,,,8.574832916259766,,,37.37940768122123
1557947782509,,,,1.8423536152964166,-0.7374141216278076,1.7190368175506592,,,341.1798252609274,
1557947782513,,34.181821340743404,100.921630859375,,,,,,,
1557947782535,1.0,,,,,,,,,
1557947782553,,33.69290282734692,100.921630859375,,,,,,,
1557947782569,,,99.7412109375,,,,,,,
1557947782580,,,,1.8667865785616928,-0.6129156351089478,0.9768342971801758,10.11669921875,,337.1376236874654,37.7879618110161
1557947782613,,33.30082810598303,99.7412109375,,,,,,,
1557947782640,,,,2.034356075263299,0.15322890877723694,1.843535304069519,7.0138139724731445,1000.6900024414063,334.3031566536127,38.052331619406445
1557947782653,,31.951297631890302,99.7412109375,,,,,,,
1557947782667,1.0,,,,,,,,,
1557947782693,,30.75919548144079,,,,,,,,
1557947782710,,,,2.1486957186799134,-0.3256114423274994,0.7134721279144287,8.368931770324707,,330.84292647102353,38.71162611283261
1557947782733,,30.109409583640034,0.0,,,,,,,
1557947782770,,,,2.5864174388817935,-0.5027823448181152,2.9735984802246094,7.377732753753662,,345.2603868843154,39.2109672113045
1557947782773,,29.948411872017058,,,,,,,,
1557947782797,1.0,,,,,,,,,
1557947782833,,29.506959061114827,,,,,,,,
1557947782841,,,,2.6144754050625068,0.05746084079146385,2.585737943649292,8.459911346435547,1000.7699584960938,343.3428454257801,39.19553473400659
1557947782873,,29.627857591106668,0.0,,,,,,,
1557947782901,,,,1.647121030319976,-0.028730420395731926,2.738966703414917,10.854113578796387,,332.20874573897265,38.924798721155696
1557947782913,,29.382301093997786,,,,,,,,
1557947782928,1.0,,,,,,,,,
1557947782951,,,,1.5332860061694582,0.33997663855552673,3.318363666534424,9.226056098937988,,333.2428141811978,39.181882853956516
1557947782953,,29.54242760767077,0.0,,,,,,,
1557947782993,,28.76830420989359,,,,,,,,
1557947783020,,,,1.3681319979736584,,3.098097085952759,9.446322441101074,1000.72998046875,333.5666078365387,38.972938685201015
1557947783021,,,,,0.05267243832349777,,,,,
1557947783033,,28.36109078268864,0.0,,,,,,,
1557947783064,1.0,,,,,,,,,
1557947783082,,,,1.8736835944870083,0.33518823981285095,3.7493197917938232,8.723274230957031,,333.3015964967422,38.972938685201015
1557947783093,,27.455269462110344,,,,,,,,
1557947783133,,32.89246505972067,0.0,,,,,,,
1557947783157,,,,2.795866800516299,,,10.945093154907227,,332.68683849030606,38.972938685201015
1557947783158,,,,,0.4118026793003082,4.434061527252197,,,,
1557947783173,,32.6717796400537,,,,,,,,
1557947783206,1.0,,,2.719873831852104,0.19153612852096558,4.10366153717041,13.028048515319824,1000.6900024414063,332.68683849030606,38.972938685201015
1557947783213,,32.643563367103624,,,,,,,,
1557947783224,,,100.8251953125,,,,,,,
1557947783253,,31.95580701158169,100.8251953125,,,,,,,
1557947783273,,,,3.959203938896423,0.090979665517807,2.873042106628418,13.459004402160645,,327.9390613001089,38.972938685201015
1557947783293,,31.841511836281224,100.8251953125,,,,,,,
1557947783340,1.0,,,3.283151711283193,-0.05267243832349777,1.1348515748977661,12.587515830993652,,320.72692112151987,38.972938685201015
1557947783353,,30.983276587133073,,,,,,,,
1557947783393,,32.425952562769325,0.0,,,,,,,
1557947783404,,,,3.468012138451053,,0.7469909191131592,11.33774185180664,,321.92298286783745,38.8753129506164
1557947783405,,,,,-0.15801730751991272,,,1000.6599731445313,,
1557947783433,,31.620469922882002,,,,,,,,
1557947783473,,31.42529919000482,,,,,,,,
1557947783474,,,0.0,,,,10.734403610229492,,,38.8753129506164
1557947783475,1.0,,,2.6061300785275576,-0.790086567401886,0.7230489253997803,,,328.87563732966856,
1557947783513,,29.97235030357131,,,,,,,,
1557947783521,,,,,,,11.002553939819336,,,39.129783302143856
1557947783522,,,,2.9147522956203704,-0.16759411990642548,0.7852981686592102,,,321.5567173886901,
1557947783573,,28.626223302290104,,,,,,,,
1557947783585,,,,3.2464631716215147,0.3974374830722809,1.6376339197158813,8.96269416809082,1000.75,312.45190788542845,40.00137439917646
1557947783612,1.0,,,,,,,,,
1557947783613,,28.203451602443582,0.0,,,,,,,
1557947783653,,26.948683279824557,,,,,,,,
1557947783655,,,,2.0110642044236093,0.15801730751991272,1.5083470344543457,9.54209041595459,,316.9116559983262,40.21865176102172
1557947783693,,27.215680423596393,0.0,,,,,,,
1557947783720,,,,2.0817433456987056,0.7326257228851318,1.479616641998291,9.187748908996582,,310.71516836441265,40.589901008936366
1557947783733,,26.696829006992118,,,,,,,,
1557947783748,1.0,,,,,,,,,
1557947783772,0.0,,,1.7457216280189,1.0295066833496094,1.886630892753601,8.914810180664063,1000.7099609375,312.6280687094068,40.09364127354736
1557947783773,,27.123471261334494,0.0,,,,,,,
1557947783833,,26.15885419692311,,,,,,,,
1557947783838,,,,1.630235235055236,-0.07661445438861847,2.9017724990844727,7.808688640594482,,316.7647454594684,40.02436971031159
1557947783873,,25.23158232402794,0.0,,,,,,,
1557947783883,0.0,,,,,,,,,
1557947783901,,,,,,,,,,39.861133935774866
1557947783902,,,,1.5147487034128686,,,10.336965560913086,,,
1557947783903,,,,,-0.6272808313369751,2.7916390895843506,,,336.90445981222143,
1557947783913,,41.05777066124305,,,,,,,,
1557947783953,,40.230592396592606,,,,,,,,
1557947783964,,,171.21320452008928,,,,,,,
1557947783973,,,,,,,,,,40.67468577957001
1557947783974,1.0,,,1.7169836504718234,-0.7661445140838623,3.974374771118164,8.364143371582031,1000.6499633789063,352.6096533557762,
1557947783993,,37.38426385844553,171.21320452008928,,,,,,,
1557947784019,1.0,,,,,,,,,
1557947784023,,,,,,,,,,41.57138364309797
1557947784033,,34.83177575592784,171.21320452008928,,,,,,,
1557947784046,,,95.45305524553572,2.616903261150984,-1.0821791887283325,3.6535518169403076,11.558009147644043,,357.0749433134117,
1557947784093,,32.9461259676185,95.45305524553572,,,,,,,
1557947784094,,,,,,,7.7847466468811035,,,42.074340474260175
1557947784095,,,,2.6078979514757243,-2.2409727573394775,5.099649429321289,,,17.461190782935432,
1557947784133,,31.00206253360305,,,,,,,,
1557947784134,,,95.45305524553572,,,,,,,
1557947784141,1.0,,,,,,,,,
1557947784148,,,99.7509765625,,,,,,,
1557947784164,,,,2.2355740404386526,-2.073378562927246,2.7054479122161865,11.668142318725586,1000.699951171875,25.08797979320491,42.09715104702477
1557947784173,,29.78399045801371,99.7509765625,,,,,,,
1557947784213,,30.26055502605108,,,,,,,,
1557947784214,,,99.7509765625,,,,,,,
1557947784230,,,,1.2612366124209153,-1.656787633895874,3.801992416381836,8.38808536529541,,22.00845923231043,43.58497373339672
1557947784253,,30.47922944628583,99.7509765625,,,,,,,
1557947784254,,,0.0,,,,,,,
1557947784277,1.0,,,2.0822310647038256,-1.5514427423477173,2.8634653091430664,9.173383712768555,,28.38127844493158,43.86901029538646
1557947784313,,30.060158703044188,,,,,,,,
1557947784351,,,,1.305679127186138,-1.3072341680526733,3.6104562282562256,8.565256118774414,1000.739990234375,22.144057270355347,44.19740041126357
1557947784353,,28.76943344414787,0.0,,,,,,,
1557947784393,,28.035883316269366,,,,,,,,
1557947784411,,,,,,,8.579621315002441,,,44.08628133544749
1557947784412,1.0,,,1.7686908402001769,-0.5410895943641663,3.19865345954895,,,18.598376298607548,
1557947784433,,27.918338700815752,0.0,,,,,,,
1557947784473,,26.67243246217547,,,,,,,,
1557947784481,,,,1.2591763796495883,,,8.148665428161621,,,44.60202018392051
1557947784482,,,,,-1.4844050407409668,3.797203779220581,,,30.846595952259975,
1557947784513,,28.013161533476286,0.0,,,,,,,
1557947784531,,,,1.7330300554859899,-1.5466543436050415,3.4189200401306152,9.580398559570313,1000.6599731445313,39.26179540597127,44.846741332207934
1557947784549,1.0,,,,,,,,,
1557947784573,,27.65202335055086,,,,,,,,
1557947784593,,,,,,,,,,45.219577639267975
1557947784594,,,,1.041859354635115,-1.9153614044189453,4.180276393890381,8.943540573120117,,43.562468413099396,
1557947784613,,25.696926605568425,0.0,,,,,,,
1557947784653,,38.00452220490844,,,,,,,,
1557947784664,,,,0.9989624303124471,,,9.278728485107422,,,44.69239397276326
1557947784665,,,,,-1.7908629179000854,4.793191909790039,,,44.140063360261536,
1557947784680,1.0,,,,,,,,,
1557947784693,,34.73964036507144,,,,,,,,
1557947784713,,,151.67259579613096,,,,,,,
1557947784730,,,,1.0066385454919464,,,9.690531730651855,,,44.23855722182133
1557947784731,,,,,-1.6424223184585571,4.405331134796143,,1000.6900024414063,53.598256605895926,
1557947784734,,32.28279758077489,151.67259579613096,,,,,,,
1557947784773,,31.82619249814422,151.67259579613096,,,,,,,
1557947784778,,,,,,,,,,44.836814698277514
1557947784779,,,,1.6639584790881636,-1.4317326545715332,3.8977603912353516,10.193313598632813,,58.14729236671866,
1557947784790,,,100.1953125,,,,,,,
1557947784791,,,100.1953125,,,,,,,
1557947784796,1.0,,,,,,,,,
1557947784833,,29.947743438577533,100.1953125,,,,,,,
1557947784844,,,,1.2362802987392387,,,9.408015251159668,,,44.99011085716203
1557947784845,,,,,-0.7134721279144287,3.778050184249878,,,56.00677255253919,
1557947784873,,29.80639094430007,100.1953125,,,,,,,
1557947784874,,,0.0,,,,,,,
1557947784909,,,,,,,,,,45.076490292955285
1557947784910,1.0,,,1.9870611917972982,-0.7996633648872375,3.734954595565796,10.24119758605957,1000.719970703125,65.03378961624901,
1557947784913,,29.59650200617164,,,,,,,,
1557947784953,,34.58451503014308,,,,,,,,
1557947784966,,,,,,,,,,45.2266532566243
1557947784967,,,,2.7178395818734136,-0.10055647045373917,2.389413356781006,9.613917350769043,,80.94511826895473,
1557947784993,,35.309982527940605,,,,,,,,
1557947785004,,,100.009765625,,,,,,,
1557947785050,,,,,,,,,,44.728849536829905
1557947785051,1.0,,,2.0957998233894473,-0.40701428055763245,3.050212860107422,9.872490882873535,,84.47605969247365,
1557947785053,,33.399693622822866,100.009765625,,,,,,,
1557947785093,,32.533908903442224,100.009765625,,,,,,,
1557947785094,,,,1.9049734625382195,-1.3311761617660522,2.7772738933563232,11.399991035461426,1000.719970703125,101.82742444864988,44.220020619822876
1557947785102,,,100.5126953125,,,,,,,
1557947785133,,30.504172188290152,100.5126953125,,,,,,,
1557947785169,,,,1.712766323124849,-1.886630892753601,3.380612850189209,9.771934509277344,,99.62357512048607,43.64103853537183
1557947785173,,29.641210912684603,100.5126953125,,,,,,,
1557947785187,1.0,,,,,,,,,
1557947785213,,28.47404586841141,,,,,,,,
1557947785235,,,,0.9785376144649057,,,8.953117370605469,,104.36725078208661,42.80782768916752
1557947785236,,,,,-1.3215993642807007,3.3710360527038574,,,,
1557947785253,,28.54084852148403,,,,,,,,
1557947785254,,,0.0,,,,,,,
1557947785305,,,,1.0593590029068498,-2.1164743900299072,3.936067581176758,8.517372131347656,1000.6900024414063,117.71529140155661,42.71147413353119
1557947785313,,27.688542236452605,,,,,,,,
1557947785322,1.0,,,,,,,,,
1557947785352,,,,1.4923688368934842,,,9.50857162475586,,112.14430907673824,42.12410292940874
1557947785353,,,,,-2.31758713722229,4.352658748626709,,,116.71863019786835,
1557947785354,,35.98083256860229,,,,,,,,
1557947785365,,,99.853515625,,,,,,,
1557947785366,,,99.853515625,,,,,,,
1557947785393,,36.103539711504446,99.853515625,,,,,,,
1557947785423,,,,1.0661361967221836,,,8.900444984436035,,,41.512649414565516
1557947785424,,,,,-2.1116859912872314,4.199429988861084,,,115.91361044191231,
1557947785433,,34.87503228769852,99.853515625,,,,,,,
1557947785443,,,100.44921875,,,,,,,
1557947785444,,,100.44921875,,,,,,,
1557947785450,1.0,,,,,,,,,
1557947785473,,33.79357742526294,100.44921875,,,,,,,
1557947785496,,,,0.9737097308998102,-2.537853717803955,3.758896589279175,9.340977668762207,1000.6900024414063,124.0538298947335,41.04558465841201
1557947785513,,32.329138258042335,100.44921875,,,,,,,
1557947785530,,,97.04657273065476,,,,,,,
1557947785544,,,,1.309393931322556,,,8.483853340148926,,121.68663659256885,40.97828696789162
1557947785545,,,,,-2.5665841102600098,4.2951979637146,,,,
1557947785573,,32.273215186192395,97.04657273065476,,,,,,,
1557947785588,1.0,,,,,,,,,
1557947785610,,,,,,,,,,40.695577279934184
1557947785611,,,,2.8885431164255135,-2.5091233253479004,3.0837318897247314,11.222820281982422,,135.8035584370963,
1557947785613,,31.789051881031757,97.04657273065476,,,,,,,
1557947785653,,31.320147426486137,97.04657273065476,,,,,,,
1557947785654,,,0.0,,,,,,,
1557947785681,,,,2.7030790468400245,,3.160346269607544,8.23006820678711,1000.6900024414063,138.30910405108878,40.695577279934184
1557947785682,,,,,-2.451662540435791,,,,,
1557947785693,,32.38387222918872,,,,,,,,
1557947785728,1.0,,,3.3014457078993487,-2.676717519760132,2.0638017654418945,11.543643951416016,,141.9038326112665,40.52024215546804
1557947785733,,29.89663676913007,0.0,,,,,,,
1557947785793,,29.76662765500507,,,,,,,,
1557947785796,,,,1.0522372570684635,-1.235408067703247,2.6384103298187256,8.51258373260498,,135.67180408800678,39.74996939891862
1557947785833,,29.4365807718918,0.0,,,,,,,
1557947785842,1.0,,,,,,,,,
1557947785868,,,,1.4632743057273574,,,9.551667213439941,,,39.49696214124374
1557947785869,,,,,-2.8778305053710938,3.5051112174987793,,1000.6599731445313,126.27207043147854,
1557947785873,,29.636238049699127,,,,,,,,
1557947785913,,28.59626703967117,0.0,,,,,,,
1557947785921,,,,1.5539521438319213,-2.427720546722412,4.132391929626465,7.909245491027832,,112.74833685598833,39.10779953554443
1557947785953,,27.81603928427595,,,,,,,,
1557947785966,1.0,,,,,,,,,
1557947785989,,,,1.8097999455873834,-2.5234885215759277,3.332728862762451,10.65778923034668,,125.69711876752524,39.60820744453864
1557947785993,,27.110652028135135,,,,,,,,
1557947785994,,,0.0,,,,,,,
1557947786053,,28.250259503012238,,,,,,,,
1557947786058,,,,,,,9.039308547973633,,,39.503038933624545
1557947786059,2.0,,,1.8223405272697284,,4.371812343597412,,1000.6599731445313,124.51075588982903,
1557947786093,2.0,34.14598050081244,,,,,,,,
1557947786094,,,0.0,,,,,,,
1557947786113,,,,2.6505040571077014,-1.436521053314209,3.7876269817352295,11.648988723754883,,127.54319595677461,38.78118187663992
1557947786133,,39.51088000047227,,,,,,,,
1557947786173,,37.12433228126486,,,,,,,,
1557947786175,,,,2.1984125695784043,,3.9600095748901367,11.021707534790039,,123.58059340790001,38.78118187663992
1557947786176,,,,,-1.3838485479354858,,,,,
1557947786188,,,111.92236328125,,,,,,,
1557947786209,2.0,,,,,,,,,
1557947786213,,34.34023115163888,111.92236328125,,,,,,,
1557947786231,,,,5.575993833355114,-2.4660277366638184,2.8347349166870117,14.478935241699219,1000.6599731445313,133.6504779050332,39.101663440920866
1557947786253,,33.72188439023209,111.92236328125,,,,,,,
1557947786268,,,152.2650582449777,,,,,,,
1557947786297,,,,,,,,,,39.475943161639314
1557947786298,,,,1.9373908473616452,,,10.882843971252441,,131.25387380830244,
1557947786299,,,,,-1.7525556087493896,2.8155810832977295,,,134.5639747253874,
1557947786317,,33.25037568620732,152.2650582449777,,,,,,,
1557947786328,2.0,,,,,,,,,
1557947786353,,33.3350835860672,152.2650582449777,,,,,,,
1557947786362,,,,1.2807903861045402,-1.8770540952682495,2.5665841102600098,10.20767879486084,,133.97426985282684,38.66807598379305
1557947786393,,31.875265959926363,152.2650582449777,,,,,,,
1557947786407,,,160.34434000651044,,,,,,,
1557947786427,,,,,,,,,,38.8074748876405
1557947786428,,,,1.266147882273418,-0.8475474119186401,1.9967641830444336,8.20612621307373,1000.6599731445313,133.97043128651327,
1557947786433,,30.803709090280652,160.34434000651044,,,,,,,
1557947786446,2.0,,,,,,,,,
1557947786473,,30.14939475608317,160.34434000651044,,,,,,,
1557947786474,,,0.0,,,,,,,
1557947786506,,,,1.5901541442047507,-1.7860745191574097,2.231395959854126,8.182184219360352,,139.66563426176668,39.47176334334206
1557947786533,,28.094239763994686,,,,,,,,
1557947786563,,,,,,,,,,39.80276492688915
1557947786564,,,,1.8313067534834255,-1.072602391242981,1.5179238319396973,8.38808536529541,,141.75326792120273,
1557947786573,,27.125080874581364,,,,,,,,
1557947786574,,,0.0,,,,,,,
1557947786578,2.0,,,,,,,,,
1557947786613,,26.866367346839425,,,,,,,,
1557947786623,,,,,,,7.995436668395996,,,40.21305923049344
1557947786624,,,,2.0144513875625747,-2.10210919380188,2.7676970958709717,,1000.6799926757813,142.662147533678,
1557947786653,,25.56432543445251,0.0,,,,,,,
1557947786689,,,,,,,,,,40.63126970944048
1557947786690,,,,1.0954505234849181,-1.8387469053268433,2.959233283996582,8.526948928833008,,129.62290659677345,
1557947786693,,38.28946673526027,,,,,,,,
1557947786711,2.0,,,,,,,,,
1557947786733,,39.52585615725547,,,,,,,,
1557947786742,,,,2.6505892404394165,,1.7764976024627686,11.323376655578613,,142.63701243753235,41.42813219604295
1557947786743,,,244.61490885416669,,-1.9345149993896484,,,,,
1557947786793,,37.298286034547246,244.61490885416669,,,,,,,
1557947786806,5.0,,,3.1048494309239048,-2.212242364883423,1.647210717201233,12.00333023071289,1000.7099609375,144.51299219496804,41.67841309574206
1557947786833,,33.92358994464628,244.61490885416669,,,,,,,
1557947786851,5.0,,,,,,,,,
1557947786873,,32.692086904620396,,,,,,,,
1557947786879,,,,4.383542685108469,-2.8395233154296875,0.44532153010368347,13.358448028564453,,147.20634069037916,41.2419698632509
1557947786913,,32.64700898855262,,,,,,,,
1557947786925,,,49.442138671875,,,,,,,
1557947786926,,,,2.2386200600150548,-3.8498764038085938,3.0789434909820557,9.029731750488281,,128.5631481055326,41.05532965404517
1557947786953,,32.3477385208645,49.442138671875,,,,,,,
1557947786993,,30.25234586638192,49.442138671875,,,,,,,
1557947786994,,,,2.293206327695582,,2.011129379272461,12.697649002075195,,126.08049728563805,40.756473010300844
1557947786995,4.0,,,,-4.10366153717041,,,1000.6599731445313,,
1557947787053,,28.89797880594085,49.442138671875,,,,,,,
1557947787068,,,,1.411639334509007,-3.2752678394317627,2.078166961669922,8.637083053588867,,131.2642966769759,41.281231370181004
1557947787093,,29.16977856563838,,,,,,,,
1557947787114,,,,3.9281230868848516,-2.7724854946136475,2.0446481704711914,5.500678539276123,,124.57785566823523,42.53410575523084
1557947787133,,28.764701311810853,0.0,,,,,,,
1557947787134,4.0,,,,,,,,,
1557947787173,,27.636026745991835,,,,,,,,
1557947787184,5.0,,,5.264149082612008,-2.5282769203186035,1.4269442558288574,4.150348663330078,1000.699951171875,121.20714365245561,43.64321291135672
1557947787213,,26.963076880761626,0.0,,,,,,,
1557947787264,,,,2.093613008031494,-2.298433542251587,2.3080103397369385,7.272387504577637,,125.92444112348159,43.922432013595895
1557947787265,5.0,,,,,,,,,
1557947787273,,28.587711618183846,,,,,,,,
1557947787313,,27.962515420792116,0.0,,,,,,,
1557947787314,,,,1.1781024515842555,-1.1109095811843872,2.0207061767578125,10.375272750854492,,143.1319416051698,44.434783850391284
1557947787353,,30.129939956882854,,,,,,,,
1557947787380,,,,1.0815688153831742,,,14.814123153686523,,,43.883254843029675
1557947787381,,,,,-1.37906014919281,2.8634653091430664,,1000.5999755859375,140.93354959815284,
1557947787393,,42.314236985540475,,,,,,,,
1557947787402,,,99.501953125,,,,,,,
1557947787408,5.0,,,,,,,,,
1557947787426,,,,4.536870167634153,-2.2457611560821533,3.2609026432037354,13.770251274108887,,135.33569047895045,44.450648622532746
1557947787433,,40.70162130972513,99.501953125,,,,,,,
1557947787473,,38.743703366497485,99.501953125,,,,,,,
1557947787484,,,69.00309244791666,,,,,,,
1557947787499,,,,1.7843439102804788,,1.9919757843017578,11.280281066894531,,147.7338225396009,45.04542283272878
1557947787500,,,,,0.5841852426528931,,,,,
1557947787533,,36.65039250798474,69.00309244791666,,,,,,,
1557947787544,5.0,,,,,,,,,
1557947787566,,,,1.7525733011672737,,-0.1388636976480484,11.083956718444824,,135.36298391487384,45.1376804556313
1557947787567,11.0,,,,1.173158884048462,,,1000.6399536132813,,
1557947787573,,35.642231248289995,69.00309244791666,,,,,,,
1557947787585,,,80.11572265625,,,,,,,
1557947787586,,,80.11572265625,,,,,,,
1557947787613,,34.45263804460729,80.11572265625,,,,,,,
1557947787614,,,,,,,8.9866361618042,,,46.0405263543553
1557947787615,,,,0.8886941424923124,0.6607996821403503,1.4317326545715332,,,137.81218046821368,
1557947787653,,33.377245824119534,80.11572265625,,,,,,,
1557947787659,11.0,,,,,,,,,
1557947787665,,,80.29094587053572,,,,,,,
1557947787685,,,,3.208088968722313,-0.2537853717803955,0.689530074596405,12.798205375671387,,132.31062701630847,46.660582761824735
1557947787693,,32.12649739958793,80.29094587053572,,,,,,,
1557947787733,,30.775896901420392,80.29094587053572,,,,,,,
1557947787754,,,,3.3051604525446914,,2.0159177780151367,7.808688640594482,,129.52643700493618,46.660582761824735
1557947787755,10.0,,,,-0.004788403399288654,,,1000.6300048828125,,
1557947787782,10.0,,,,,,,,,
1557947787793,,30.59349002285211,80.29094587053572,,,,,,,
1557947787794,,,0.0,,,,,,,
1557947787825,,,,,,,,,,46.127432726049705
1557947787826,,,,1.589817206233805,0.17717093229293823,1.987187385559082,8.009801864624023,,119.04260206296522,
1557947787833,,30.33851011994372,,,,,,,,
1557947787872,,,,,,,,,,46.98787096287617
1557947787873,,28.60102387829647,0.0,2.0944855949323573,0.3208230137825012,2.3798365592956543,7.42561674118042,,116.50229078609738,
1557947787913,,29.05824821129517,,,,,,,,
1557947787918,10.0,,,,,,,,,
1557947787936,13.0,,,2.0495315667853258,-0.8810662031173706,2.4372973442077637,7.353790283203125,1000.6900024414063,120.40157748136596,46.63314475747834
1557947787953,,29.333016522477156,0.0,,,,,,,
1557947788009,,,,1.39273494142476,-0.6177040338516235,3.1747114658355713,8.134300231933594,,113.29335180080949,46.59367077376185
1557947788013,,28.391728551004782,,,,,,,,
1557947788053,,43.4129166329378,,,,,,,,
1557947788054,13.0,,,,,,,,,
1557947788066,,,356.78361002604163,,,,,,,
1557947788071,,,,,,,,,,46.40700437442537
1557947788072,,,,3.14720519681229,-1.8818424940109253,2.964021682739258,6.3051300048828125,,111.94229257165676,
1557947788093,,42.12586551282531,356.78361002604163,,,,,,,
1557947788125,,,,3.3287875809877656,,,5.706579685211182,,116.06928411347525,46.11735079475818
1557947788126,5.0,,,,-5.5545477867126465,0.4836287498474121,,1000.5700073242188,125.40037436884484,
1557947788133,,38.997431220155086,356.78361002604163,,,,,,,
1557947788145,,,206.77197265625,,,,,,,
1557947788173,,37.26543243367733,206.77197265625,,,,,,,
1557947788174,5.0,,,,,,,,,
1557947788188,,,,3.8417510750876365,,0.507570743560791,4.135983467102051,,125.13013110414414,45.3564779014376
1557947788189,,,,,-9.299078941345215,,,,,
1557947788213,,35.424405304414236,206.77197265625,,,,,,,
1557947788226,,,223.64676339285714,,,,,,,
1557947788259,,,,4.834737157294795,-11.48259162902832,-1.235408067703247,2.431311845779419,,127.1029219628756,45.24621726479548
1557947788273,,34.68075118635069,223.64676339285714,,,,,,,
1557947788304,5.0,,,,,,,,,
1557947788313,,34.64134196702135,223.64676339285714,,,,,,,
1557947788325,2.0,,,3.283155196984351,-10.860098838806152,-3.4955344200134277,0.8655039072036743,1000.6599731445313,145.52491204126213,44.001478286532006
1557947788353,,34.70106621751185,,,,,,,,
1557947788379,,,,6.896558218328115,-11.03248119354248,-6.962338447570801,1.9620482921600342,,146.1942842403017,43.215853626347965
1557947788393,,32.030360049802965,,,,,,,,
1557947788424,2.0,,,,,,,,,
1557947788433,,31.255004113758172,,,,,,,,
1557947788442,,,,6.3869531804261,-11.923124313354492,-7.766790390014648,2.3020248413085938,,156.41663222008793,43.157966377881976
1557947788444,,,82.6318359375,,,,,,,
1557947788497,,29.02049375062245,82.6318359375,,,,,,,
1557947788511,1.0,,,4.852944783772099,-11.803414344787598,-5.880159378051758,4.997896194458008,1000.6499633789063,157.1042956657248,42.64739189983551
1557947788533,,28.115411451074976,82.6318359375,,,,,,,
1557947788534,,,0.0,,,,,,,
1557947788540,1.0,,,,,,,,,
1557947788562,,,,,,,,,,42.423696230635095
1557947788563,,,,5.883551684137896,-10.611102104187012,-3.8115692138671875,4.064157485961914,,163.6023873779132,
1557947788573,,28.288917349023187,,,,,,,,
1557947788613,,27.442864621355533,0.0,,,,,,,
1557947788645,,,,5.582193039937963,,-2.9257144927978516,1.1432312726974487,,144.81902565091963,42.09465710359951
1557947788646,,,,,-10.18493366241455,,,,,
1557947788653,,28.305181649508178,,,,,,,,
1557947788663,1.0,,,,,,,,,
1557947788690,,,,,,,-0.0586579404771328,,,41.925650367002994
1557947788691,0.0,,,3.93591736973502,-8.801085472106934,-4.261679172515869,,1000.6599731445313,134.03341929103914,
1557947788694,,27.737571224117158,0.0,,,,,,,
1557947788753,,26.98444914531368,,,,,,,,
1557947788762,,,,3.6080354128535483,-8.403648376464844,-4.941632270812988,1.3922282457351685,,143.06175458125875,42.143328173722914
1557947788789,0.0,,,,,,,,,
1557947788793,,39.9123334618658,,,,,,,,
1557947788805,,,126.2371826171875,,,,,,,
1557947788833,,42.681149881403655,126.2371826171875,,,,,,,
1557947788836,,,,4.3341615081112925,-8.916007041931152,-5.056553840637207,1.7417817115783691,,136.0946337787656,42.11140116987313
1557947788873,,41.70094482270805,126.2371826171875,,,,,,,
1557947788892,,,,,,,0.7841010689735413,,,42.50811791429278
1557947788893,,,,4.593724672416361,-10.548852920532227,-3.7253777980804443,,1000.6599731445313,112.94564053054248,
1557947788904,0.0,,,,,,,,,
1557947788913,,38.640895419269675,,,,,,,,
1557947788949,,,,6.431876680112409,-11.195286750793457,-5.315127849578857,1.9381062984466553,,105.09041072084005,42.20355450544039
1557947788953,,38.72247075251436,,,,,,,,
1557947788962,,,100.888671875,,,,,,,
1557947789013,,41.2101757802763,100.888671875,,,,,,,
1557947789024,,,,8.172957456242077,-12.344504356384277,-3.5051112174987793,1.9333178997039795,,80.56427375102396,41.94723007732787
1557947789045,0.0,,,,,,,,,
1557947789053,,41.600229782243616,,,,,,,,
1557947789054,,,100.888671875,,,,,,,
1557947789072,,,,7.862995019318538,,,3.341108560562134,,75.85405918616732,41.61273976076726
1557947789073,,,,,-13.589488983154297,-4.299986362457275,,1000.7099609375,,
1557947789093,,38.57440082829302,,,,,,,,
1557947789133,,43.98804985152954,,,,,,,,
1557947789139,,,,6.455166177538628,-13.330915451049805,-7.062894821166992,3.6332011222839355,,96.74360536638267,41.24730415042953
1557947789173,,43.114012067323195,,,,,,,,
1557947789182,,,51.07421875,,,,,,,
1557947789187,0.0,,,,,,,,,
1557947789214,,,,5.675888785113443,,,3.6523547172546387,,124.85677327318189,40.006374013881675
1557947789215,,,,,-10.72602367401123,-9.102754592895508,,,138.05336810818517,
1557947789233,,48.05951152771104,51.07421875,,,,,,,
1557947789264,,,,6.765664186430252,-8.571242332458496,-8.336610794067383,2.7760767936706543,1000.699951171875,150.5954805565395,38.92801146780479
1557947789273,,44.8033671046318,51.07421875,,,,,,,
1557947789281,,,53.8330078125,,,,,,,
1557947789313,0.0,42.33037683315699,53.8330078125,,,,,,,
1557947789331,,,,6.628586572009674,-6.689399719238281,-7.762001991271973,2.560598611831665,,157.66747208354903,37.54424038943494
1557947789353,,37.99814797354793,53.8330078125,,,,,,,
1557947789393,,36.39578202711363,,,,,,,,
1557947789406,,,,6.089874756876644,,,2.1775264739990234,,162.41177612255325,36.41496957771637
1557947789407,,,,,-6.957550048828125,-6.550535678863525,,,,
1557947789433,,33.48749924714839,,,,,,,,
1557947789441,,,61.005859375,,,,,,,
1557947789452,1.0,,,6.770844663952859,,-7.718906402587891,2.2828712463378906,,173.84538984974955,35.569791562400304
1557947789453,1.0,,,,-6.9240312576293945,,,1000.6099853515625,,
1557947789493,,33.982854972397874,61.005859375,,,,,,,
1557947789521,,,,,,,1.4305355548858643,,,35.069931091423655
1557947789522,,,,7.839046937662074,-8.47547435760498,-8.700529098510742,,,167.05760249410423,
1557947789533,,41.42217667319656,61.005859375,,,,,,,
1557947789542,,,67.5439453125,,,,,,,
1557947789573,,37.9353804210005,67.5439453125,,,,,,,
1557947789595,1.0,,,6.5498916849979345,-8.504204750061035,-8.202534675598145,1.3778630495071411,,169.80145340823844,34.57123114179335
1557947789613,,36.46383250748957,67.5439453125,,,,,,,
1557947789622,,,99.6044921875,,,,,,,
1557947789640,,,,,,,1.5885528326034546,,,34.52723624288545
1557947789641,,,,5.210988377632996,-10.333374977111816,-5.688623428344727,,1000.6499633789063,170.00148232827144,
1557947789653,,38.51238850905893,99.6044921875,,,,,,,
1557947789693,,38.646265117113884,99.6044921875,,,,,,,
1557947789699,,,0.0,,,,,,,
1557947789705,,,,,,,,,,34.31238866291155
1557947789706,,,,2.49485764917284,-10.994174003601074,-5.329493045806885,1.4305355548858643,,167.31638470137767,
1557947789734,1.0,,,,,,,,,
1557947789753,,40.74076030210951,,,,,,,,
1557947789781,,,,,,,,,,34.33977341098935
1557947789782,,,,2.4518473997563337,-9.50498104095459,-4.4532151222229,1.6172832250595093,,165.97052324618335,
1557947789793,,39.57944553282508,,,,,,,,
1557947789830,,,,3.1552243218573595,,,1.7369933128356934,,,33.85350821105704
1557947789831,,,,,-9.097966194152832,-2.8778305053710938,,1000.6499633789063,152.65897632744873,
1557947789833,,36.50702703879471,,,,,,,,
1557947789842,,,46.26953125,,,,,,,
1557947789843,,,46.26953125,,,,,,,
1557947789873,,31.229866470333793,46.26953125,,,,,,,
1557947789877,1.0,,,,,,,,,
1557947789897,,,,4.282446478282649,-7.642292022705078,-2.604891538619995,0.8367735147476196,,145.04197668580719,33.550410421109554
1557947789913,,33.18633993613679,46.26953125,,,,,,,
1557947789969,,,,3.0779234534567874,-7.3693528175354,-4.5394062995910645,-1.2030863761901855,,131.36524687290867,33.86827496415297
1557947789973,,29.610689275599192,,,,,,,,
1557947790013,,29.253859612701106,0.0,,,,,,,
1557947790018,0.0,,,3.1521054996804474,,-6.205770969390869,-0.7050924301147461,,121.42822321551057,34.112901708059056
1557947790019,,,,,-8.643068313598633,,,1000.6900024414063,,
1557947790020,0.0,,,,,,,,,
1557947790053,,28.03406965738835,,,,,,,,
1557947790088,,,,3.363318395464881,-9.375694274902344,-5.971138954162598,1.4927847385406494,,142.52255212742128,33.696291525628006
1557947790093,,38.32941262183319,,,,,,,,
1557947790094,,,0.0,,,,,,,
1557947790133,,44.894727963164,,,,,,,,
1557947790162,,,,5.29723165656049,,,1.6938977241516113,,,33.43964785499394
1557947790163,0.0,,,,-11.061211585998535,-6.325480937957764,,,137.6264949454377,
1557947790173,,42.379156618334704,,,,,,,,
1557947790185,,,1683.02734375,,,,,,,
1557947790211,,,,5.905274325724466,-11.583148002624512,-6.191405773162842,1.799242615699768,1000.6499633789063,134.9291576195513,33.84804349538876
1557947790233,,39.36628290971353,1683.02734375,,,,,,,
1557947790273,,37.22851452255144,1683.02734375,,,,,,,
1557947790277,,,,,,,1.985990285873413,,,33.63881793209889
1557947790278,,,,5.493023001661047,-8.863334655761719,-3.117250680923462,,,121.38291174055672,
1557947790304,0.0,,,,,,,,,
1557947790313,,37.05722317367514,,,,,,,,
1557947790329,,,,4.5306650770774715,,,1.4113819599151611,,,32.87430713460102
1557947790330,,,,,-9.222464561462402,-4.098873138427734,,,120.82470770044824,
1557947790353,,38.471834228684074,,,,,,,,
1557947790366,,,645.83984375,,,,,,,
1557947790393,,35.76090723393853,645.83984375,,,,,,,
1557947790402,,,,3.616366661977503,-9.222464561462402,-4.702212333679199,2.100912094116211,1000.6799926757813,135.03508019319986,32.87430713460102
1557947790423,0.0,,,,,,,,,
1557947790433,,34.40942600254514,645.83984375,,,,,,,
1557947790468,,,,1.835581643537757,-8.767566680908203,-5.137956619262695,2.450465440750122,,144.6937190004066,31.7567324110154
1557947790493,,33.899707774072674,,,,,,,,
1557947790519,,,,1.8219283631036025,,,2.694674015045166,,162.32049747448522,30.520321804164936
1557947790520,,,,,-8.08282470703125,-5.60722017288208,,,172.45735880661957,
1557947790533,,37.819663390776114,,,,,,,,
1557947790547,0.0,,,,,,,,,
1557947790573,,46.338043988435366,,,,,,,,
1557947790584,,,38.8720703125,,,,,,,
1557947790597,,,,2.2809352918959913,,-6.095637321472168,3.5039141178131104,1000.6399536132813,182.3491702541778,29.511523845965648
1557947790598,,,,,-7.503427982330322,,,,,
1557947790613,,41.952041295068256,38.8720703125,,,,,,,
1557947790645,,,,4.184697138356671,-7.196970462799072,-6.100425720214844,3.886986494064331,,198.36743917871854,29.269438414182716
1557947790653,,37.59623862278639,,,,,,,,
1557947790654,,,38.8720703125,,,,,,,
1557947790669,0.0,,,,,,,,,
1557947790713,,31.641963501955416,,,,,,,,
1557947790724,,,,,,,,,,29.95296425089241
1557947790725,,,,5.324912794948262,-7.848193168640137,-7.570465564727783,4.212597846984863,,203.0654891766634,
1557947790757,,47.39216442063111,,,,,,,,
1557947790769,,,1789.443359375,,,,,,,
1557947790793,,44.923802877999854,1789.443359375,,,,,,,
1557947790798,,,,5.337692128638728,-8.992621421813965,-7.771578788757324,2.8095955848693848,1000.6499633789063,206.69516098463487,30.93283045136625
1557947790800,0.0,,,,,,,,,
1557947790833,,40.88415704994144,1789.443359375,,,,,,,
1557947790842,,,,,,,,,,31.732948222615086
1557947790843,,,,4.68159784672258,-9.959878921508789,-8.154650688171387,2.234987258911133,,189.03701828188753,
1557947790845,,,1810.0390625,,,,,,,
1557947790873,,38.46718157674536,1810.0390625,,,,,,,
1557947790904,,,,2.6590955863146783,-8.327033042907715,-6.603208065032959,1.8758569955825806,,188.97408491887506,31.839912003869994
1557947790913,,36.74041283074384,1810.0390625,,,,,,,
1557947790922,,,1798.0224609375,,,,,,,
1557947790924,0.0,,,,,,,,,
1557947790968,,,,,,,,,,32.471834627401186
1557947790969,,,,2.1333191657589317,-8.159439086914063,-4.223371982574463,-0.7721300721168518,1000.6799926757813,190.13155609638204,
1557947790973,,35.16800461046425,1798.0224609375,,,,,,,
1557947791013,,35.7697495389403,1798.0224609375,,,,,,,
1557947791020,,,0.0,,,,,,,
1557947791044,,,,3.1052811092092636,-8.65743350982666,-4.10366153717041,-0.9301473498344421,,165.0114827244435,32.932658572433816
1557947791053,,35.16413548886644,,,,,,,,
1557947791062,0.0,,,,,,,,,
1557947791090,,,,1.1864320068296514,-7.948749542236328,-4.898536682128906,0.7362170219421387,,178.90856810034498,33.47148120126006
1557947791093,,32.018241242201725,,,,,,,,
1557947791103,,,454.072265625,,,,,,,
1557947791133,,31.400634453978938,454.072265625,,,,,,,
1557947791162,1.0,,,2.33192972700261,-7.4986395835876465,-4.027047157287598,0.10893617570400238,1000.5999755859375,167.57582260681144,33.76299826654381
1557947791173,,30.01341975445697,454.072265625,,,,,,,
1557947791178,1.0,,,,,,,,,
1557947791211,,,,2.222926011165676,-8.38449478149414,-3.8115692138671875,1.3443442583084106,,181.39836694057703,33.61145715822955
1557947791233,,28.989998417286383,454.072265625,,,,,,,
1557947791273,,29.767653867884686,,,,,,,,
1557947791276,,,,2.7862135925241813,,,0.2861070930957794,,,34.50174134987554
1557947791277,,,,,-8.2312650680542,-3.5721490383148193,,,168.89209568252127,
1557947791290,1.0,,,,,,,,,
1557947791313,,29.013802671593247,,,,,,,,
1557947791314,,,0.0,,,,,,,
1557947791340,0.0,,,2.734041204514555,-7.465120792388916,-4.821922302246094,0.8032546639442444,1000.6199951171875,166.33194953630374,34.39564152763279
1557947791353,,27.541878190752524,,,,,,,,
1557947791393,,27.509946628328326,0.0,,,,,,,
1557947791411,,,,,,,,,,34.81106222652514
1557947791412,0.0,,,0.789914379489889,-7.115567684173584,-6.095637321472168,0.41539400815963745,,173.58943534079248,
1557947791453,,28.3348544227876,,,,,,,,
1557947791463,,,,,,,,,,34.75557585276641
1557947791464,,,,0.7419745290271129,-7.51779317855835,-5.588066577911377,1.1049240827560425,,187.83277396894425,
1557947791493,,28.387497502491254,0.0,,,,,,,
1557947791529,,,,0.9666940653688941,,,0.24779987335205078,,195.33029994162393,34.78289886432358
1557947791530,,,,,,-5.219359874725342,,1000.5999755859375,,
1557947791531,0.0,,,,-8.092401504516602,,,,,
1557947791533,,38.80160975920993,,,,,,,,
1557947791573,,40.627016846394355,,,,,,,,
1557947791581,,,1058.564453125,,,,,,,
1557947791598,,,,2.1935750255740665,-8.882488250732422,-5.310339450836182,1.215057373046875,,196.92360549006946,34.894269637431016
1557947791613,,38.798688559381056,1058.564453125,,,,,,,
1557947791649,0.0,,,,,,,,,
1557947791653,,37.75514081640362,1058.564453125,,,,,,,
1557947791662,,,1269.833984375,,,,,,,
1557947791666,,,,3.381299955947393,-9.41400146484375,-4.649539470672607,2.0482394695281982,,217.14185335789932,35.07221198920653
1557947791713,,34.89906575907468,1269.833984375,,,,,,,
1557947791731,,,,3.6233776013554526,-10.668562889099121,-5.693411827087402,2.7281928062438965,1000.6099853515625,227.1854962682413,34.815801740046595
1557947791753,,39.2284821293443,1269.833984375,,,,,,,
1557947791780,0.0,,,4.902702652761189,-9.251194953918457,-2.9927520751953125,3.005920171737671,,254.5505262344924,35.177408273401234
1557947791793,,40.049484441333774,,,,,,,,
1557947791833,,39.13149627757168,,,,,,,,
1557947791843,,,9.038643973214285,,,,,,,
1557947791852,,,,3.2474883718186978,,,1.8088194131851196,,,35.8184318282068
1557947791853,,,,,-10.20887565612793,-5.51624059677124,,,226.24646820076964,
1557947791873,,39.314113313465576,9.038643973214285,,,,,,,
1557947791913,,38.35378838819653,9.038643973214285,,,,,,,
1557947791916,2.0,,,2.7581470491905424,-10.778696060180664,-5.343858242034912,1.655590534210205,1000.5700073242188,246.22162280584956,36.551881608657325
1557947791973,,42.425591430980376,9.038643973214285,,,,,,,
1557947791979,,,0.0,,,,,,,
1557947791988,,,,3.166730043546682,-9.57201862335205,-6.066906929016113,3.494337320327759,,252.21996323684647,37.1436409951385
1557947792013,,42.912077086308706,,,,,,,,
1557947792035,,,,3.734780006313175,-9.002198219299316,-6.6846113204956055,3.5901055335998535,,252.33933445297077,38.42811550895014
1557947792053,2.0,47.868982984201566,,,,,,,,
1557947792063,,,40.44921875,,,,,,,
1557947792093,,40.99776304962003,40.44921875,,,,,,,
1557947792100,,,,5.001307507265132,,,4.298789024353027,,,38.154553453374085
1557947792101,,,,,-8.461109161376953,-7.158663272857666,,1000.6300048828125,261.9062779705701,
1557947792133,,43.78820954022268,40.44921875,,,,,,,
1557947792176,,,,,,,,,,37.82248119129121
1557947792177,,,,6.8460385750551085,-7.781155586242676,-6.852205276489258,4.926070213317871,,266.9814227125914,
1557947792193,,42.73480299997778,,,,,,,,
1557947792195,2.0,,,,,,,,,
1557947792222,,,,7.190955881979949,-7.522581577301025,-7.101202011108398,4.892550945281982,,266.100096083228,37.61170193404562
1557947792233,,40.21770425237291,,,,,,,,
1557947792242,,,42.5537109375,,,,,,,
1557947792273,,39.11823970204176,42.5537109375,,,,,,,
1557947792290,0.0,,,7.2708826218239695,-8.528146743774414,-7.599195957183838,3.4608185291290283,1000.6099853515625,264.42589377425276,37.40213877432411
1557947792313,,37.153114188870575,42.5537109375,,,,,,,
1557947792345,0.0,,,,,,,,,37.18816994251123
1557947792346,,,,6.1880341886871735,-6.603208065032959,-7.01979923248291,2.7664999961853027,,253.95126592728298,
1557947792353,,35.26353414349918,,,,,,,,
1557947792393,,35.19873230428216,,,,,,,,
1557947792399,,,0.0,,,,,,,
1557947792417,,,,4.209398090891102,-6.315904140472412,-5.420472621917725,-0.25977087020874023,,231.04743548912825,36.73377169303086
1557947792453,,36.85118485706401,,,,,,,,
1557947792481,,,,5.804276750903098,,-7.441178798675537,-2.519897222518921,1000.5899658203125,209.34815672242956,36.96823026625512
1557947792482,0.0,,,,-7.752425193786621,,,,,
1557947792493,,35.221530711345665,,,,,,,,
1557947792499,,,0.0,,,,,,,
1557947792533,,32.21312064459865,,,,,,,,
1557947792554,,,,,,,,,,36.85987070873353
1557947792555,,,,3.8900055296400136,-8.202534675598145,-6.866570472717285,-0.7817068696022034,,228.72724754883166,
1557947792573,,32.72090108054255,,,,,,,,
1557947792601,,,,,,,,,,36.76873756472029
1557947792613,,32.261706608918374,,,,,,,,
1557947792620,0.0,,,,,,,,,
1557947792623,,,692.578125,,,,,,,
1557947792653,,30.484041701865166,692.578125,,,,,,,
1557947792671,,,,2.7536149973423787,-9.428366661071777,-5.439626216888428,-1.5670050382614136,1000.6300048828125,230.1180926298997,36.54955653275133
1557947792713,,32.86935378858966,692.578125,,,,,,,
1557947792729,,,,2.4267793282182524,-9.346963882446289,-5.2049946784973145,-0.9445125460624695,,243.11765016772642,36.28787669880842
1557947792753,,30.365958380270687,,,,,,,,
1557947792755,0.0,,,,,,,,,
1557947792793,,29.23056652013747,0.0,,,,,,,
1557947792800,,,,3.43414767400693,-9.854534149169922,-4.778826713562012,1.459265947341919,,271.28392962551163,36.30454663788881
1557947792833,,30.36085104835663,,,,,,,,
1557947792864,,,,3.745432169772495,-10.309432983398438,-5.1331682205200195,1.071405291557312,1000.6099853515625,291.77931924910393,36.05745520995142
1557947792873,,37.6671612916602,0.0,,,,,,,
1557947792883,0.0,,,,,,,,,
1557947792919,,,,4.56793620615171,,,2.584540843963623,,285.9971406449596,36.023465278331855
1557947792920,,,,,-10.754754066467285,-6.828263282775879,,,,
1557947792933,,41.45692035989193,,,,,,,,
1557947792973,,36.53306550466026,,,,,,,,
1557947792982,,,185.3759765625,,,,,,,
1557947792983,,,,5.565124235591544,-10.467450141906738,-7.90086555480957,4.241328239440918,,293.8204188297247,35.39223057676607
1557947793000,0.0,,,,,,,,,
1557947793013,,35.44963499204235,185.3759765625,,,,,,,
1557947793053,,36.13755187688887,185.3759765625,3.748268745061522,-8.130708694458008,-4.180276393890381,3.1016883850097656,1000.6099853515625,304.5439490153335,35.07264015813103
1557947793093,,38.41465938556728,,,,,,,,
1557947793116,,,,2.7078768907959585,-9.485827445983887,-4.802768707275391,0.7841010689735413,,305.719233326196,35.752903929457844
1557947793133,,35.79457455700408,,,,,,,,
1557947793135,0.0,,,,,,,,,
1557947793143,,,46.0009765625,,,,,,,
1557947793185,,,,,,,,,,35.67029587995385
1557947793186,,,,2.95408429101356,-9.251194953918457,-4.54419469833374,2.6850972175598145,,308.71352337153246,
1557947793193,,32.84584989091317,46.0009765625,,,,,,,
1557947793233,,31.750336414672006,46.0009765625,,,,,,,
1557947793235,,,,2.6751570147485455,,,2.646790027618408,,322.1298419770405,36.49849438057201
1557947793236,1.0,,,,-8.643068313598633,-4.975151062011719,,1000.5399780273438,,
1557947793262,1.0,,,,,,,,,
1557947793273,,31.38950202341142,,,,,,,,
1557947793307,,,,4.204160654891032,-8.848969459533691,-6.540958881378174,3.7624878883361816,,318.0511193820865,36.8376177037394
1557947793313,,31.755293287812314,,,,,,,,
1557947793353,,32.23003928134594,0.0,,,,,,,
1557947793373,,,,6.458178446563416,-8.676587104797363,-7.623138427734375,3.9157168865203857,,321.7510055347257,36.79741919631427
1557947793393,,30.619175791292097,,,,,,,,
1557947793399,1.0,,,,,,,,,
1557947793419,,,,6.834236395485234,,-8.762778282165527,5.246892929077148,,318.2052460158024,36.90135515510678
1557947793420,,,,,-8.216899871826172,,,1000.6099853515625,,
1557947793453,,33.054745275005544,0.0,,,,,,,
1557947793493,,43.55826161778719,,,,,,,,
1557947793500,,,,7.739471421046612,-8.370129585266113,-9.011775016784668,3.0585925579071045,,312.21183356629166,36.86326174875473
1557947793518,1.0,,,,,,,,,
1557947793533,,48.92160579932572,,,,,,,,
1557947793540,,,72.5048828125,,,,,,,
1557947793546,,,,9.06029867863064,,,1.3443442583084106,,285.03521778339007,36.943877096639994
1557947793547,,,,,-7.848193168640137,-10.81700325012207,,,,
1557947793573,,44.83136433465059,72.5048828125,,,,,,,
1557947793613,,43.690894307804136,72.5048828125,,,,,,,
1557947793620,2.0,,,8.84124785164508,-5.315127849578857,-6.761225700378418,0.7026981711387634,1000.6099853515625,261.36107861064136,37.15548473651299
1557947793640,2.0,,,,,,,,,
1557947793673,,41.80809703508541,,,,,,,,
1557947793687,,,,4.121486670397902,-7.283161640167236,-6.2201361656188965,-0.1496376097202301,,296.0763961616341,37.469587501920635
1557947793713,,38.72859245992412,,,,,,,,
1557947793722,,,96.23046875,,,,,,,
1557947793736,,,,3.4254539968497157,-7.331045627593994,-6.751648902893066,-1.0115501880645752,,284.28024965367183,37.469587501920635
1557947793753,,38.57442721109797,96.23046875,,,,,,,
1557947793764,2.0,,,,,,,,,
1557947793793,,38.303195234605056,96.23046875,,,,,,,
1557947793810,,,,2.550122770458156,-7.675810813903809,-4.960785865783691,1.1288660764694214,1000.5799560546875,299.40547817442246,37.47812725554745
1557947793833,,35.85730434741426,,,,,,,,
1557947793865,,,,2.835462125759004,-8.130708694458008,-3.2130186557769775,0.14245499670505524,,329.25844894208024,37.69058246969132
1557947793873,,34.26805977354198,,,,,,,,
1557947793881,,,238.193359375,,,,,,,
1557947793882,2.0,,,,,,,,,
1557947793928,,,,3.8319584550855277,,-3.064578056335449,0.14245499670505524,,330.7464090678621,37.414570053140444
1557947793929,,,,,-8.652645111083984,,,,,
1557947793933,,34.857870624358114,238.193359375,,,,,,,
1557947793973,,33.996137891772506,238.193359375,,,,,,,
1557947793998,0.0,,,4.302731936917716,-9.500192642211914,-5.396530628204346,1.6747441291809082,1000.5999755859375,330.45259823543023,37.2010756193546
1557947794013,,33.09203846704074,238.193359375,,,,,,,
1557947794014,0.0,,,,,,,,,
1557947794053,,33.29545860926218,,,,,,,,
1557947794060,,,,3.5568607603655122,-9.557653427124023,-5.932831764221191,1.0618284940719604,,321.6624248113798,37.245804887120556
1557947794093,,32.9465517847249,,,,,,,,
1557947794100,,,237.568359375,,,,,,,
1557947794132,,,,,,,1.2246341705322266,,,36.66033318740184
1557947794133,,44.43804376809989,237.568359375,4.108379751153428,-9.806650161743164,-5.544970989227295,,,323.02263649402033,
1557947794150,0.0,,,,,,,,,
1557947794178,,,,5.782281237206674,-11.69806957244873,-8.465897560119629,2.1487960815429688,1000.5999755859375,317.0887423129371,36.82580610844526
1557947794193,,39.77284588896025,237.568359375,,,,,,,
1557947794233,,38.41699347036132,,,,,,,,
1557947794240,,,,,,,,,,36.67001494037791
1557947794241,,,,5.521095048950958,-10.457873344421387,-5.295974254608154,3.37941575050354,,321.55971242664117,
1557947794273,,36.192378865225486,,,,,,,,
1557947794283,,,391.02437337239587,,,,,,,
1557947794289,0.0,,,,,,,,,
1557947794313,,38.82931409445635,391.02437337239587,,,,,,,
1557947794317,,,,5.236380212930971,-9.337387084960938,-3.1028854846954346,0.20470423996448517,,325.9689615359104,36.95199601043594
1557947794353,,39.076362378370646,391.02437337239587,,,,,,,
1557947794383,,,,4.381453413873567,-9.346963882446289,-4.874594688415527,2.2254104614257813,1000.6300048828125,329.2683151503363,36.743707050597514
1557947794413,,34.78037658882372,,,,,,,,
1557947794430,,,,2.346299171156063,,,2.5079262256622314,,324.9257218571772,36.87872097780593
1557947794431,0.0,,,,-9.30386734008789,-4.788403511047363,,,,
1557947794453,,34.457808264923315,,,,,,,,
1557947794475,,,100.1513671875,,,,,,,
1557947794493,,34.2229464306882,100.1513671875,,,,,,,
1557947794505,,,,1.3984607715908033,-8.695740699768066,-5.70777702331543,2.5079262256622314,,329.1575465574716,37.564876503814396
1557947794533,,33.125353510003286,100.1513671875,,,,,,,
1557947794542,,,83.18719773065476,,,,,,,
1557947794555,,,,1.9764561077931164,,-6.358999729156494,3.0154969692230225,,338.11946679574936,38.128207090471
1557947794556,0.0,,,,-7.694964408874512,,,1000.5799560546875,,
1557947794573,,33.64254740044258,83.18719773065476,,,,,,,
1557947794613,,35.5516375072185,83.18719773065476,,,,,,,
1557947794622,,,63.447265625,,,,,,,
1557947794624,,,,4.189655716983851,-7.493851184844971,-6.6846113204956055,3.005920171737671,,333.7069699315298,38.827312136333155
1557947794673,,36.85282483159261,63.447265625,,,,,,,
1557947794701,0.0,,,6.33690555952292,-7.627926826477051,-7.694964408874512,3.1256303787231445,,331.09049692277443,38.88508764305408
1557947794713,,36.344896556059474,63.447265625,,,,,,,
1557947794745,1.0,,,6.498746897877758,-8.595184326171875,-8.853757858276367,2.962824583053589,1000.5499877929688,314.44320855681065,39.47518187052776
1557947794753,,43.79337967735174,63.447265625,,,,,,,
1557947794763,,,53.49609375,,,,,,,
1557947794793,,40.68860384863644,53.49609375,,,,,,,
1557947794815,,,,7.529113973135152,-8.949525833129883,-9.62947940826416,1.8567034006118774,,314.7532820696563,39.7518558337683
1557947794833,,38.3711083184305,53.49609375,,,,,,,
1557947794842,1.0,,,,,,,,,
1557947794893,,37.03751855142797,,,,,,,,
1557947794896,,,,5.143947652215219,-6.244078159332275,-6.766014099121094,1.1815385818481445,,298.95360651931276,39.910400246028075
1557947794933,,41.31009314665306,,,,,,,,
1557947794940,,,300.52734375,,,,,,,
1557947794943,,,,,,,,,,40.28908100630015
1557947794944,2.0,,,4.454632634387333,-7.843404769897461,-6.0621185302734375,1.1623848676681519,1000.5299682617188,280.83484951931814,
1557947794968,2.0,,,,,,,,,
1557947794973,,37.36878880550802,300.52734375,,,,,,,
1557947795013,,35.15036805557447,300.52734375,1.7650541209711603,-7.943961143493652,-6.445190906524658,1.521515130996704,,310.7587244807498,40.12044452702415
1557947795053,,39.55661547971081,,,,,,,,
1557947795061,,,,0.9509412732709174,-7.891288757324219,-4.60165548324585,1.114500880241394,,328.1808807325786,39.97224088931862
1557947795093,,32.30710962445937,,,,,,,,
1557947795101,,,111.728515625,,,,,,,
1557947795109,2.0,,,,,,,,,
1557947795137,0.0,,,1.6278986387261059,-7.666234016418457,-2.920926094055176,0.52552729845047,1000.5099487304688,326.3549594315699,39.87204584425493
1557947795153,,32.98687774808321,111.728515625,,,,,,,
1557947795186,,,,3.7671837330834546,-7.967903137207031,-2.9927520751953125,1.2725181579589844,,332.8795608154744,39.588131188485136
1557947795193,,31.1573286508885,111.728515625,,,,,,,
1557947795204,,,96.044921875,,,,,,,
1557947795233,,30.549850996933333,96.044921875,,,,,,,
1557947795240,0.0,,,,,,,,,
1557947795261,,,,3.3000121896692036,-9.327810287475586,-4.898536682128906,1.3108254671096802,,326.79276772717856,39.4215701283367
1557947795273,,31.931827381883515,96.044921875,,,,,,,
1557947795313,,30.926990843629603,,3.661301994332231,-9.442731857299805,-5.8657941818237305,1.84233820438385,1000.5099487304688,324.0501803980408,39.17729177240852
1557947795353,,32.584657945250825,,,,,,,,
1557947795360,0.0,,,,,,,,,
1557947795392,,,,4.715236138653261,-10.002974510192871,-4.802768707275391,1.2868833541870117,,325.4008878724513,38.85730481936463
1557947795413,,44.880045601847456,0.0,,,,,,,
1557947795441,,,,6.759603379933168,-12.919112205505371,-7.105990409851074,1.6412252187728882,,323.48225358364886,39.08606064466916
1557947795453,,41.96551023225347,,,,,,,,
1557947795488,0.0,,,,,,,,,
1557947795493,,38.29910958331397,,,,,,,,
1557947795502,,,139.8095703125,,,,,,,
1557947795506,,,,,,,,,,39.109717430356106
1557947795507,1.0,,,6.568179624640527,-9.744400978088379,-5.137956619262695,3.37941575050354,1000.5299682617188,322.945004563914,
1557947795533,,37.102095970384894,139.8095703125,,,,,,,
1557947795573,,37.87063917153819,139.8095703125,,,,,,,
1557947795582,,,,4.576180002593615,-8.973467826843262,-3.4332852363586426,0.42018240690231323,,327.2562507038773,38.74093455241506
1557947795585,,,100.0634765625,,,,,,,
1557947795624,1.0,,,,,,,,,
1557947795633,,38.231732447343234,100.0634765625,,,,,,,
1557947795640,,,,3.80904882597732,,-4.649539470672607,1.3491326570510864,,325.86110601872673,39.07556971539204
1557947795641,,,,,-9.835380554199219,,,,,
1557947795673,,34.28658609057921,100.0634765625,,,,,,,
1557947795684,,,66.7431640625,,,,,,,
1557947795692,0.0,,,2.3313864578522656,-9.821015357971191,-4.778826713562012,2.412158250808716,1000.5499877929688,333.68032024093566,39.276583454014045
1557947795713,,34.29752195915023,66.7431640625,,,,,,,
1557947795750,,,,,,,,,,39.64290808021687
1557947795751,,,,1.0657028281689152,-8.801085472106934,-5.410895824432373,1.9381062984466553,,329.9950472780257,
1557947795753,,34.28093941957972,66.7431640625,,,,,,,
1557947795757,0.0,,,,,,,,,
1557947795763,,,79.36136881510416,,,,,,,
1557947795793,,37.444956554899825,79.36136881510416,,,,,,,
1557947795823,,,,,,,2.78086519241333,,,39.531887996546246
1557947795824,,,,3.085102673372318,-8.08282470703125,-6.349422931671143,,,333.8777331985165,
1557947795833,,32.6220653247433,79.36136881510416,,,,,,,
1557947795844,,,52.3291015625,,,,,,,
1557947795878,,,,3.877893167677763,,,2.694674015045166,,339.2322104794766,39.477589779941944
1557947795879,0.0,,,,,,,,,
1557947795893,,34.57477157967479,52.3291015625,,,,,,,
1557947795933,,38.844378168444514,52.3291015625,,,,,,,
1557947795940,,,,5.391986177500318,-6.8809356689453125,-6.890512466430664,2.823961019515991,,332.3605637687491,39.371816686409495
1557947795973,,33.25110332868509,,,,,,,,
1557947796010,0.0,,,7.133570552458586,-7.240066051483154,-8.403648376464844,2.895787000656128,,315.78766982322514,39.8374192952816
1557947796013,,44.49743155500655,,,,,,,,
1557947796030,,,1231.767578125,,,,,,,
1557947796053,,40.810065123882794,1231.767578125,,,,,,,
1557947796075,,,,,,,,,,39.859502720316044
1557947796076,2.0,,,6.802629792567472,-9.332598686218262,-9.926360130310059,2.1152772903442383,1000.5199584960938,278.9628381017902,
1557947796093,,37.9785470969822,1231.767578125,,,,,,,
1557947796134,,,,5.172428527898738,,-7.943961143493652,1.698686122894287,,292.70078007003036,39.67896195092523
1557947796135,2.0,,,,-7.747636795043945,,,,,
1557947796153,,36.83918750073515,1231.767578125,,,,,,,
1557947796193,,37.58173451408297,,,,,,,,
1557947796212,,,,1.656504557498796,-8.571242332458496,-5.578489780426025,1.765723705291748,,331.2267250457703,39.69004940315098
1557947796233,,37.25800774072914,,,,,,,,
1557947796239,,,0.0,,,,,,,
1557947796249,2.0,,,,,,,,,
1557947796257,,,,0.8127765184979242,-9.361329078674316,-5.7125654220581055,1.0666168928146362,1000.5199584960938,336.89610990596105,39.1844351472552
1557947796273,,35.012792650053655,,,,,,,,
1557947796313,,33.4890746251617,,,,,,,,
1557947796323,,,98.80859375,,,,,,,
1557947796324,,,98.80859375,,,,,,,
1557947796348,,,,,,,2.0147206783294678,,,39.22167882474377
1557947796349,,,,2.0604491007238166,-8.614337921142578,-4.7405195236206055,,,338.7962907311734,
1557947796373,,37.04625311501508,98.80859375,,,,,,,
1557947796377,2.0,,,,,,,,,
1557947796394,,,,2.770324077033366,,,0.8224082589149475,,,38.68203782946429
1557947796395,,,,,-7.532158374786377,-3.8738183975219727,,,347.4085240669667,
1557947796413,,45.78990833701173,98.80859375,,,,,,,
1557947796453,,31.495077763296187,,,,,,,,
1557947796470,0.0,,,3.194608652805548,-7.603984832763672,-3.2848446369171143,1.0235211849212646,1000.5499877929688,340.9452646119981,39.08567750571734
1557947796493,,29.851723689253497,,,,,,,,
1557947796500,,,46.7529296875,,,,,,,
1557947796516,0.0,,,3.504987296871832,-8.039729118347168,-4.01268196105957,0.645237386226654,,342.2842497742455,38.46271109660994
1557947796533,,29.641918400727278,46.7529296875,,,,,,,
1557947796573,,28.186189787808914,46.7529296875,,,,,,,
1557947796581,,,,3.324446243409176,,-5.013458251953125,1.1288660764694214,,337.6453526296075,38.954461409515666
1557947796582,,,,,-8.595184326171875,,,,,
1557947796633,,28.729055612445865,,,,,,,,
1557947796659,1.0,,,3.7605464134481514,-9.495404243469238,-5.195417881011963,2.1296424865722656,1000.5199584960938,331.554516069323,38.98038034745776
1557947796673,,42.94980131062938,,,,,,,,
1557947796681,,,1162.79296875,,,,,,,
1557947796706,,,,,,,1.4975731372833252,,,39.105755040964425
1557947796707,,,,5.562710704456032,-11.372458457946777,-6.67982292175293,,,331.46491935533805,
1557947796713,,44.40320108621301,1162.79296875,,,,,,,
1557947796753,,41.732674177898865,1162.79296875,,,,,,,
1557947796773,,,,6.917667668843488,,,2.93888258934021,,,38.53894215179714
1557947796774,,,,,-12.516886711120605,-8.087613105773926,,,327.8617230681368,
1557947796793,,39.17094416847259,1162.79296875,,,,,,,
1557947796801,1.0,,,,,,,,,
1557947796833,,36.78297011885242,,,,,,,,
1557947796848,,,,6.657705228523723,-8.757989883422852,-3.1938650608062744,1.9524714946746826,1000.5199584960938,328.93490629619134,38.895116981048986
1557947796893,,38.327305272949616,,,,,,,,
1557947796895,,,,4.480982543965795,,,0.1280897855758667,,333.7700074549271,38.72027850689311
1557947796896,,,,,-9.792284965515137,-4.630385875701904,,,337.0269609625329,
1557947796906,,,1245.48828125,,,,,,,
1557947796933,,37.173729242612474,1245.48828125,,,,,,,
1557947796943,1.0,,,,,,,,,
1557947796962,,,,,,,,,,38.952406807654505
1557947796963,,,,3.302923791508028,-9.591172218322754,-4.917690277099609,1.5646108388900757,,334.53534210425806,
1557947796973,,35.627886611572336,1245.48828125,,,,,,,
1557947797013,,40.944276162168066,,,,,,,,
1557947797036,,,,,,,,,,38.858333154692396
1557947797037,0.0,,,1.7185195768393866,-9.045293807983398,-5.57370138168335,2.632424831390381,1000.449951171875,337.47351190027916,
1557947797053,,38.67396186065409,,,,,,,,
1557947797064,,,12.112601143973215,,,,,,,
1557947797083,0.0,,,2.0003697530368596,-8.734047889709473,-5.161899089813232,2.919728994369507,,344.87116001672575,39.03485700349256
1557947797113,,36.502910262674106,12.112601143973215,,,,,,,
1557947797152,,,,3.745041175279788,-7.9631147384643555,-6.311115741729736,3.4320881366729736,,347.2497238763112,39.144988537024474
1557947797153,,34.82583078820828,12.112601143973215,,,,,,,
1557947797160,,,0.0,,,,,,,
1557947797193,,37.42106069350682,,,,,,,,
1557947797226,4.0,,,4.4000046209831245,-7.771578788757324,-6.995857238769531,3.398569345474243,1000.4599609375,341.38505024737145,39.54200281847793
1557947797233,,33.43098888553679,,,,,,,,
1557947797242,,,101.5283203125,,,,,,,
1557947797273,,44.867683042235136,101.5283203125,,,,,,,
1557947797274,,,,6.8611763433254636,-7.886500358581543,-8.585607528686523,3.5230677127838135,,333.93415226860816,40.1140873031174
1557947797313,,44.41753263467436,101.5283203125,,,,,,,
1557947797339,,,,,,,1.5837644338607788,,,40.23269844019749
1557947797340,,,,7.687649857215691,-8.283937454223633,-9.59596061706543,,,336.440908533631,
1557947797367,4.0,,,,,,,,,
1557947797373,,39.71445727618313,,,,,,,,
1557947797413,,37.865652148418135,,,,,,,,
1557947797417,6.0,,,5.8700569948097145,-7.2352776527404785,-7.800309181213379,2.4887726306915283,1000.489990234375,300.7061989093922,40.67849554719681
1557947797425,,,100.517578125,,,,,,,
1557947797453,,38.58364760110975,100.517578125,,,,,,,
1557947797465,,,,2.3545661069768298,,,0.4537012279033661,,,41.163455197250336
1557947797466,,,,,-7.795520782470703,-5.17626428604126,,,354.1906722476785,
1557947797485,6.0,,,,,,,,,
1557947797493,,39.0998781362926,100.517578125,,,,,,,
1557947797530,,,,,,,-0.5901707410812378,,,40.78308496654219
1557947797531,,,,2.724132952858328,-8.686163902282715,-6.210559368133545,,,19.62516375917744,
1557947797533,,36.06814950379781,100.517578125,,,,,,,
1557947797573,,35.34968950129239,,,,,,,,
1557947797604,,,,2.1369725831503956,-8.65743350982666,-4.879383087158203,1.2725181579589844,1000.489990234375,1.5050520338496085,40.09900194493314
1557947797627,6.0,,,,,,,,,
1557947797633,,35.18412757218324,,,,,,,,
1557947797640,,,99.4970703125,,,,,,,
1557947797654,,,,2.9649773970927664,-8.561665534973145,-3.7205893993377686,0.28131869435310364,,353.3114954203563,39.90551572645432
1557947797673,,34.68208821566492,99.4970703125,,,,,,,
1557947797713,,33.61611477502822,99.4970703125,,,,,,,
1557947797721,,,,5.340376296482965,-8.580819129943848,-1.742978811264038,0.3148375153541565,,354.2718648407766,39.4948116825655
1557947797724,,,51.5384521484375,,,,,,,
1557947797753,,33.125154150806885,51.5384521484375,,,,,,,
1557947797767,6.0,,,,,,,,,
1557947797793,,33.39162830287881,51.5384521484375,,,,,,,
1557947797795,0.0,,,5.532184931302979,-8.65743350982666,-2.5474305152893066,0.7649474143981934,1000.469970703125,347.83916407904144,39.33573649198819
1557947797807,,,46.0009765625,,,,,,,
1557947797842,,,,4.920218440223129,,,0.5111620426177979,,,39.38933891282023
1557947797843,,,,,-10.81700325012207,-3.931279182434082,,,346.0509445684776,
1557947797853,,33.79834086254205,46.0009765625,,,,,,,
1557947797893,,31.88805193624201,46.0009765625,,,,,,,
1557947797903,,,64.3505859375,,,,,,,
1557947797909,0.0,,,3.6342946300328682,-9.557653427124023,-4.683058738708496,1.6938977241516113,,338.6573527306243,39.35708310943373
1557947797933,,43.81771434195627,64.3505859375,,,,,,,
1557947797973,,45.12930869134842,64.3505859375,,,,,,,
1557947797986,,,,3.1593532603013017,-11.281478881835938,-6.248866558074951,0.93254154920578,1000.5,330.5112354094548,39.200765354606304
1557947798013,,41.11096126891092,,,,,,,,
1557947798036,,,,6.129283419321952,,-8.255207061767578,3.997119665145874,,325.7859227114378,39.518350368290854
1557947798037,0.0,,,,-11.985373497009277,,,,,
1557947798053,,38.333356000879974,,,,,,,,
1557947798064,,,99.55078125,,,,,,,
1557947798083,,,,,,,,,,40.08116809022269
1557947798084,,,,6.423149335146412,,,3.9444472789764404,,,
1557947798085,,,,,-11.645397186279297,-2.671929121017456,,,330.84433348999255,
1557947798113,,36.969751396107746,99.55078125,,,,,,,
1557947798153,1.0,,,4.971599985089625,-11.654973983764648,-3.3470940589904785,2.8574798107147217,1000.5099487304688,330.2599254291334,40.24947233245141
1557947798155,,39.8078563308901,99.55078125,,,,,,,
1557947798179,1.0,,,,,,,,,
1557947798193,,40.60606152841591,99.55078125,,,,,,,
1557947798201,,,99.375,,,,,,,
1557947798215,,,,4.7277031649180525,-10.745177268981934,-4.022258758544922,5.51504373550415,,326.44275468316124,40.30049851158914
1557947798233,,42.2224217787643,99.375,,,,,,,
1557947798273,,41.46411252601813,99.375,,,,,,,
1557947798281,,,50.517578125,,,,,,,40.40866251411707
1557947798282,,,,3.3434833170704352,-10.879252433776855,-3.7876269817352295,5.280411720275879,,329.1180783093527,
1557947798296,1.0,,,,,,,,,
1557947798313,,39.69701329112723,50.517578125,,,,,,,
1557947798343,,,,3.8222378050932524,,-4.371812343597412,5.400122165679932,,330.3554251341085,40.742852799072
1557947798344,8.0,,,,-9.821015357971191,,,1000.4199829101563,,
1557947798373,,38.72451622492567,50.517578125,,,,,,,
1557947798382,,,47.275390625,,,,,,,
1557947798406,,,,4.54112525069288,-9.064447402954102,-3.797203779220581,6.166266441345215,,329.05045602147504,41.48313135384276
1557947798407,8.0,,,,,,,,,
1557947798413,,35.26206300126155,47.275390625,,,,,,,
1557947798453,,37.61900835058652,47.275390625,,,,,,,
1557947798462,,,48.3544921875,,,,,,,
1557947798474,,,,3.8829097620489255,-8.255207061767578,-2.403778553009033,6.01303768157959,,327.41551363984905,42.03784086456172
1557947798493,,33.973683544080444,48.3544921875,,,,,,,
1557947798524,8.0,,,,,,,,,
1557947798533,,32.51348315270935,48.3544921875,,,,,,,
1557947798544,,,58.01971435546875,,,,,,,
1557947798552,9.0,,,3.5372556406550815,-7.220912456512451,-1.3694833517074585,6.017826080322266,1000.469970703125,323.4163149374015,41.67613142064701
1557947798587,,,,,,,5.452794551849365,,,41.873501659859336
1557947798588,,,,2.569605582285099,-6.938396453857422,0.3016694188117981,,,325.45645146134933,
1557947798593,,42.38341886417495,58.01971435546875,,,,,,,
1557947798633,,45.63464738477808,58.01971435546875,,,,,,,
1557947798646,9.0,,,,,,,,,
1557947798673,,39.96233490868904,,,,,,,,
1557947798674,,,,2.7512518027688357,-5.9519853591918945,0.8427590131759644,9.091980934143066,,310.59020322335806,41.97082387383236
1557947798713,,37.30938271773586,,,,,,,,
1557947798722,,,181.6259765625,,,,,,,
1557947798724,12.0,,,3.2992839961247595,-5.961562156677246,2.408566951751709,7.349001884460449,1000.4299926757813,312.64437237095564,42.27197665655431
1557947798753,,35.57784186821751,181.6259765625,,,,,,,
1557947798770,12.0,,,,,,,,,
1557947798792,,,,1.8221030535860405,-2.628833532333374,0.9864110946655273,10.523713111877441,,296.1243577499859,42.36909279578416
1557947798793,,34.458704480672544,181.6259765625,,,,,,,
1557947798804,,,134.815673828125,,,,,,,
1557947798840,,,,0.9149602410271839,,,9.149441719055176,,306.2441743450465,42.537512895759825
1557947798841,,,,,-2.2888567447662354,1.7142484188079834,,,316.0604026918783,
1557947798853,,34.122650219038945,134.815673828125,,,,,,,
1557947798893,,33.7963906273857,134.815673828125,,,,,,,
1557947798915,37.0,,,1.4207412895004088,-2.03507137298584,1.8818424940109253,8.967482566833496,1000.3999633789063,330.36422924794863,43.10603363394314
1557947798933,,32.71897123589279,134.815673828125,,,,,,,
1557947798973,,30.356946287210672,,,,,,,,
1557947798986,,,,,,,8.412027359008789,,,43.09350337123215
1557947798987,,,,1.4405395879684788,-1.278503656387329,1.656787633895874,,,322.3655757109597,
1557947799013,,31.068026275996505,0.0,,,,,,,
1557947799035,,,,2.331060619690294,,,7.617152690887451,,,43.69222038035077
1557947799036,,,,,-1.8483237028121948,2.47560453414917,,,343.51917871203506,
1557947799037,37.0,,,,,,,,,
1557947799053,,31.084950808487196,,,,,,,,
1557947799113,,31.67177594514674,0.0,,,,,,,
1557947799116,,,,,,,,,,43.206135397137906
1557947799117,44.0,,,,-1.4221558570861816,2.5761611461639404,,1000.4199829101563,351.941766722881,
1557947799153,,30.429608778432918,,,,,,,,
1557947799164,,,,,,,,,,43.685010488412196
1557947799165,44.0,,,3.214739773483736,-0.7134721279144287,2.2409727573394775,6.247669219970703,,342.11008848814663,
1557947799193,,30.180606582425625,,,,,,,,
1557947799194,,,0.0,,,,,,,
1557947799233,,30.567222695944963,,,,,,,,
1557947799236,,,,,,,7.42561674118042,,,43.66451644413051
1557947799237,,,,2.2533642730432173,-1.4508862495422363,3.423708438873291,,,353.57288718677955,
1557947799273,,34.12673739704878,0.0,,,,,,,
1557947799286,45.0,,,2.3670293673332132,-1.37906014919281,3.00711727142334,10.820594787597656,1000.4199829101563,358.9122577968428,43.265459702197695
1557947799287,45.0,,,,,,,,,
1557947799333,,33.35962549934551,,,,,,,,
1557947799371,,,,2.587129807827123,-1.9393033981323242,4.242525577545166,10.796652793884277,,357.24056430172715,43.74528549732523
1557947799373,,41.45824359627731,,,,,,,,
1557947799387,,,270.4214564732143,,,,,,,
1557947799413,,38.537821556045955,270.4214564732143,,,,,,,
1557947799420,45.0,,,1.682527492122868,-1.1348515748977661,3.7924153804779053,10.384849548339844,,350.0581678894262,42.78142054588593
1557947799453,,35.813777826811005,270.4214564732143,,,,,,,
1557947799467,,,171.9031937210648,,,,,,,
1557947799493,,,,0.8191669276157195,,3.203441858291626,9.345766067504883,,336.82803341050356,43.33347380766965
1557947799494,44.0,,,,0.35913026332855225,,,1000.4099731445313,,
1557947799495,,34.454318068171155,171.9031937210648,,,,,,,
1557947799533,,33.72324265103734,171.9031937210648,,,,,,,
1557947799546,,,,2.2371128621115,0.7948749661445618,2.2170307636260986,11.467028617858887,,331.158194342733,43.161788111742204
1557947799547,44.0,,,,,,,,,
1557947799593,,37.62212758519344,171.9031937210648,,,,,,,
1557947799604,,,244.5849609375,,,,,,,
1557947799624,,,,3.3282774411244107,,,12.075156211853027,,320.44288770488487,43.09744704998674
1557947799625,,,,,1.5705963373184204,0.9193734526634216,,,,
1557947799633,,37.34474161609762,244.5849609375,,,,,,,
1557947799673,,35.8500328092854,244.5849609375,,,,,,,
1557947799681,39.0,,,2.6140312635307765,0.9289502501487732,1.556231141090393,11.763910293579102,1000.4099731445313,333.80156122134525,43.22290981273855
1557947799683,39.0,,,,,,,,,
1557947799713,,38.158645132125976,,,,,,,,
1557947799722,,,,3.3026418283807017,0.2106897532939911,0.7469909191131592,12.170924186706543,,343.2880775539204,43.32227997372145
1557947799753,,39.84971530042459,,,,,,,,
1557947799763,,,408.4109235491071,,,,,,,
1557947799790,,,,2.123338610863627,,,10.17416000366211,,,43.8641105852974
1557947799791,,,,,0.3926490843296051,0.8810662031173706,,,345.2535447423143,
1557947799795,,35.438097174249705,408.4109235491071,,,,,,,
1557947799812,39.0,,,,,,,,,
1557947799853,,33.61071276009333,408.4109235491071,,,,,,,
1557947799861,31.0,,,2.3099571887916652,-0.363918662071228,2.03507137298584,8.87171459197998,1000.3800048828125,357.50194368843245,44.15574776722244
1557947799893,,31.600320227005668,,,,,,,,
1557947799911,,,,1.4239730447243166,-0.11971008777618408,2.0207061767578125,8.617929458618164,,4.41179762360332,44.167183089973854
1557947799933,,32.64912839119173,,,,,,,,
1557947799939,31.0,,,,,,,,,
1557947799942,,,321.669921875,,,,,,,
1557947799973,,38.989326488425576,321.669921875,,,,,,,
1557947799986,,,,,,,,,,44.3326072894903
1557947799987,,,,1.5940220170600505,-1.0438719987869263,2.4612393379211426,10.140641212463379,,21.41115748184552,
1557947800013,,37.38282354805727,321.669921875,,,,,,,
1557947800020,,,358.5009765625,,,,,,,
1557947800058,17.0,,,1.6537087576200644,-0.7852981686592102,2.542642116546631,8.531737327575684,1000.3699951171875,32.43960780257123,44.556706302022384
1557947800073,,36.004823594297555,358.5009765625,,,,,,,
1557947800086,17.0,,,,,,,,,
1557947800108,,,,1.5129490461625532,,2.8778305053710938,10.08318042755127,,33.42680919425902,44.11870440388735
1557947800109,,,,,-1.3742717504501343,,,,,
1557947800113,,33.969144972091605,358.5009765625,,,,,,,
1557947800153,,32.95824027328858,,,,,,,,
1557947800186,,,,1.945773395647153,-2.47560453414917,3.4141316413879395,10.107122421264648,,42.29644162401877,43.583944352330164
1557947800193,,32.203504306415894,,,,,,,,
1557947800203,,,52.72238595145089,,,,,,,
1557947800209,17.0,,,,,,,,,
1557947800233,,30.771327502148573,52.72238595145089,,,,,,,
1557947800235,14.0,,,1.681473815655113,,1.886630892753601,11.026495933532715,,48.00862444954885,43.37015335840477
1557947800236,,,,,-1.6089035272598267,,,1000.3800048828125,,
1557947800273,,32.52226942107891,52.72238595145089,,,,,,,
1557947800295,,,,,,,,,,43.1891191490936
1557947800296,,,,2.079896788237156,-2.671929121017456,3.1459810733795166,7.535749912261963,,51.09213384091862,
1557947800333,,33.73776912263189,52.72238595145089,,,,,,,
1557947800347,14.0,,,,,,,,,
1557947800366,,,,2.6610597036975827,-1.680729627609253,1.647210717201233,10.796652793884277,,55.130206565027265,43.33878182429198
1557947800373,,31.24225807024436,,,,,,,,
1557947800413,,29.16790779965398,,,,,,,,
1557947800423,,,241.708984375,,,,,,,
1557947800443,13.0,,,2.4110568696272305,-1.6424223184585571,1.8722656965255737,11.021707534790039,1000.3999633789063,61.75905541868639,43.49172339428688
1557947800453,,29.737422361975213,241.708984375,,,,,,,
1557947800492,,,,1.2708772068058927,,,9.781511306762695,,,43.87812818705572
1557947800493,13.0,27.870189299555182,241.708984375,,-2.22660756111145,2.499546527862549,,,57.755143885711504,
1557947800494,,,0.0,,,,,,,
1557947800533,,28.752530344415504,,,,,,,,
1557947800543,,,,1.2522651652466705,-2.389413356781006,2.494758129119873,9.599552154541016,,61.77572108026118,44.142724646615505
1557947800593,,28.951582836592653,0.0,,,,,,,
1557947800616,,,,,,,,,,44.37758600227192
1557947800617,12.0,,,1.2406354120619931,-3.0597896575927734,2.6431987285614014,8.608352661132813,1000.3699951171875,67.97069582727357,
1557947800618,12.0,,,,,,,,,
1557947800633,,28.247009446908482,,,,,,,,
1557947800673,,29.384574388954317,0.0,,,,,,,
1557947800691,,,,,,,,,,44.66508866331535
1557947800692,,,,1.6415652532607075,-2.6431987285614014,2.145204782485962,9.90122127532959,,71.92242471498952,
1557947800713,,28.87724231717778,,,,,,,,
1557947800738,,,,1.0653961204324978,,2.8347349166870117,9.963470458984375,,69.82154731875283,44.99800138464508
1557947800739,,,,,-2.2026655673980713,,,,,
1557947800753,,29.277493283463592,,,,,,,,
1557947800754,,,0.0,,,,,,,
1557947800759,12.0,,,,,,,,,
1557947800810,,,,1.1310969549524414,,,10.437521934509277,,,45.26378400825514
1557947800811,11.0,,,,-1.944091796875,3.4189200401306152,,1000.3699951171875,76.84691597448784,
1557947800813,,28.63676262243233,,,,,,,,
1557947800854,,30.958945682313765,0.0,,,,,,,
1557947800864,,,,2.6192211847055606,,,11.725603103637695,,72.56532993099529,44.18936671693903
1557947800865,,,,,-1.8962076902389526,3.5865142345428467,,,,
1557947800891,11.0,,,,,,,,,
1557947800895,,40.35054926621183,,,,,,,,
1557947800933,,35.83453950938726,,,,,,,,
1557947800944,,,,2.1413702120109206,-0.9624691009521484,3.069366693496704,11.352107048034668,,75.5600263725874,43.42004358712909
1557947800973,,34.59002912031531,,,,,,,,
1557947800988,,,72.9769287109375,,,,,,,
1557947801002,,,,3.532997171737182,-0.2106897532939911,1.2066776752471924,12.099098205566406,1000.3699951171875,99.14482667099236,42.441726847112356
1557947801013,,32.19813389472329,72.9769287109375,,,,,,,
1557947801034,11.0,,,,,,,,,
1557947801060,,,,,,,12.247538566589355,,,42.075646258698846
1557947801061,,,,3.3287269871682987,-1.6950948238372803,1.4700398445129395,,,101.91224856795225,
1557947801073,,33.712257850724896,72.9769287109375,,,,,,,
1557947801087,,,67.45593843005952,,,,,,,
1557947801110,,,,,,,12.175712585449219,,,41.350694672216555
1557947801111,,,,3.085074852231639,-1.5083470344543457,1.1779472827911377,,,108.67995516743775,
1557947801116,,33.07960547796563,,,,,,,,
1557947801117,,,67.45593843005952,,,,,,,
1557947801153,,33.65416123020616,67.45593843005952,,,,,,,
1557947801161,11.0,,,,,,,,,
1557947801184,,,,1.5700395641079812,,,10.169371604919434,,,41.33485360800383
1557947801185,10.0,,,,-1.3934253454208374,1.1827356815338135,,1000.3699951171875,110.06392907820074,
1557947801193,,31.42262172012679,,,,,,,,
1557947801233,,29.879733347961096,0.0,,,,,,,
1557947801260,,,,1.8927558681612218,-0.6607996821403503,1.4173674583435059,8.08162784576416,,109.11171874563092,41.267543015139026
1557947801284,10.0,,,,,,,,,
1557947801293,,28.249020705980527,,,,,,,,
1557947801309,,,,1.3160422526536346,-0.5889736413955688,1.9249382019042969,8.565256118774414,,108.02709836581124,41.02986872280841
1557947801333,,27.59827528698494,0.0,,,,,,,
1557947801373,,28.529813361382995,,,,,,,,
1557947801382,13.0,,,0.9743129608194318,-0.6129156351089478,2.322375535964966,8.87171459197998,1000.3499755859375,112.6431109616351,41.399154934574156
1557947801411,13.0,,,,,,,,,
1557947801413,,28.779652266057425,0.0,,,,,,,
1557947801434,,,,0.9824054026502514,-0.5746083855628967,2.3702597618103027,9.211690902709961,,119.60781387716207,41.34404495053314
1557947801453,,27.004368872531053,,,,,,,,
1557947801493,,28.661894640785572,,,,,,,,
1557947801494,,,0.0,,,,,,,
1557947801512,,,,1.8257297572267752,-0.6847416758537292,1.9057846069335938,8.292317390441895,,127.08524543330358,40.96950085124299
1557947801538,13.0,,,,,,,,,
1557947801553,,46.483480250197914,,,,,,,,
1557947801562,14.0,,,1.8046367027102495,-2.3511061668395996,2.2649147510528564,11.888408660888672,1000.3899536132813,135.71113231724772,40.55736774251129
1557947801593,,41.60022837391928,,,,,,,,
1557947801606,,,145.1041279141865,,,,,,,
1557947801617,,,,3.3202941175961733,-3.490746021270752,2.892195701599121,11.371260643005371,,129.22317660578761,41.32626307242466
1557947801633,,38.14217689774848,145.1041279141865,,,,,,,
1557947801675,,36.617900654439254,,,,,,,,
1557947801676,,,145.1041279141865,,,,,,,
1557947801690,14.0,,,4.334633020973479,-3.5482068061828613,1.623268723487854,12.922703742980957,,135.13981431393282,40.79240162910449
1557947801713,,35.54088385928013,145.1041279141865,,,,,,,
1557947801732,,,84.76391020275297,,,,,,,
1557947801753,,35.13863302161373,84.76391020275297,,,,,,,
1557947801760,15.0,,,4.19303641921243,-4.347870349884033,2.647987127304077,10.729615211486816,1000.3800048828125,137.89128771918075,41.71558546041121
1557947801804,,,,,,,,,,41.191869441778465
1557947801805,,,,2.103067306021956,-3.552995204925537,1.723825216293335,8.13908863067627,,131.7027948216907,
1557947801813,,33.200434580102055,84.76391020275297,,,,,,,
1557947801825,15.0,,,,,,,,,
1557947801830,,,89.51996527777779,,,,,,,
1557947801853,,31.24307533258698,89.51996527777779,,,,,,,
1557947801868,,,,6.375875076372023,-3.1316158771514893,1.4173674583435059,3.0107085704803467,,122.91038792578166,41.1145962578259
1557947801893,,29.933370148421655,89.51996527777779,,,,,,,
1557947801894,,,0.0,,,,,,,
1557947801933,,32.636601049983156,,,,,,,,
1557947801939,,,,4.235814374247996,,,4.954800605773926,,,40.43142403379246
1557947801940,12.0,,,,-3.6727054119110107,2.0159177780151367,,1000.3699951171875,122.03908801411984,
1557947801959,12.0,,,,,,,,,
1557947801973,,32.19955856626119,,,,,,,,
1557947801988,,,40.56640625,,,,,,,
1557947802003,,,,1.807933975398276,-4.831499099731445,2.1930887699127197,9.81024169921875,,129.683230827523,40.373011458235915
1557947802033,,35.5667480897401,40.56640625,,,,,,,
1557947802073,,33.026489060754216,40.56640625,,,,,,,
1557947802076,,,,1.7556283223822484,-4.299986362457275,2.9879636764526367,10.255562782287598,,129.13225312755642,40.3157538780741
1557947802084,,,41.689453125,,,,,,,
1557947802093,12.0,,,,,,,,,
1557947802113,,28.93542155800189,41.689453125,,,,,,,
1557947802122,8.0,,,1.8431241541175285,-4.20421838760376,3.643975019454956,10.653000831604004,1000.3499755859375,129.62124003061595,39.94058086708304
1557947802153,,27.451825869914206,41.689453125,,,,,,,
1557947802154,,,0.0,,,,,,,
1557947802190,,,,,,,,,,39.79962418225426
1557947802191,,,,4.353129407848966,-3.73016619682312,3.5003228187561035,12.72637939453125,,134.29584881932936,
1557947802193,,45.42787646206902,,,,,,,,
1557947802218,8.0,,,,,,,,,
1557947802233,,43.12317162595104,,,,,,,,
1557947802247,,,350.6781005859375,,,,,,,
1557947802262,,,,4.150213231503095,-2.2840683460235596,3.399766445159912,10.466252326965332,,133.0011728017751,39.686019149186265
1557947802293,,38.651924686780454,350.6781005859375,,,,,,,
1557947802308,,,,2.6840834080659786,,,12.740744590759277,,128.65240501760633,39.278112430708624
1557947802309,9.0,,,,-2.983175277709961,2.1068975925445557,,1000.3699951171875,139.21073000266549,
1557947802333,,37.26122044747728,350.6781005859375,,,,,,,
1557947802358,9.0,,,,,,,,,
1557947802373,,37.101916107049895,350.6781005859375,3.6826004841258024,,,12.419920921325684,,143.69988549503472,38.943677480645725
1557947802374,,,,,-2.6431987285614014,1.3120225667953491,,,143.94254845586693,
1557947802384,,,256.6942051478795,,,,,,,
1557947802413,,36.48997260756179,256.6942051478795,,,,,,,
1557947802434,,,,1.7219060877712697,-3.4093432426452637,2.365471363067627,10.581174850463867,,131.95409114163382,38.41002536179934
1557947802453,,36.1969488624908,256.6942051478795,,,,,,,
1557947802473,9.0,,,,,,,,,
1557947802493,,33.245158772980375,,,,,,,,
1557947802496,11.0,,,1.617279787240688,-3.332728862762451,1.9345149993896484,7.880515098571777,1000.3499755859375,130.56937957044045,38.15468578234736
1557947802553,,31.1533777869738,,,,,,,,
1557947802564,,,,1.427861449382969,-4.07014274597168,2.3989901542663574,7.492654323577881,,119.83191238383023,38.197906144162125
1557947802565,,,46.884765625,,,,,,,
1557947802593,,31.989174195341153,46.884765625,,,,,,,
1557947802600,11.0,,,,,,,,,
1557947802633,,30.09810622646593,46.884765625,,,,,,,
1557947802634,,,0.0,,,,,,,
1557947802635,,,,2.550276000850001,-4.228160381317139,2.557007312774658,5.946000099182129,,116.6522954006492,38.39414072783371
1557947802673,,30.957234935492785,,,,,,,,
1557947802704,19.0,,,2.6178462323987586,-4.481945514678955,2.183511972427368,6.0417680740356445,1000.3299560546875,128.0206671608935,38.22695408598515
1557947802713,,33.07890196065436,0.0,,,,,,,
1557947802714,19.0,,,,,,,,,
1557947802757,,,,3.629673280330923,-4.955997467041016,2.31758713722229,4.485537052154541,,125.38910455671433,38.36730435523911
1557947802773,,30.691730372833412,,,,,,,,
1557947802813,,31.77087334453077,0.0,,,,,,,
1557947802817,,,,5.250069754000894,-4.9368438720703125,0.9481038451194763,3.403357744216919,,135.07838359253773,36.98080744450341
1557947802830,19.0,,,,,,,,,
1557947802853,,45.00931125588123,,,,,,,,
1557947802881,22.0,,,5.018770651578872,-7.570465564727783,-0.8667010068893433,1.334767460823059,1000.3699951171875,150.43279911088814,36.82580658171116
1557947802893,,41.146049384239745,,,,,,,,
1557947802909,,,80.91422526041666,,,,,,,
1557947802933,,37.71364903046475,80.91422526041666,,,,,,,
1557947802937,,,,6.668151531161338,-10.141838073730469,-3.0310592651367188,0.5781996846199036,,145.42290999619715,35.98458088851117
1557947802948,22.0,,,,,,,,,
1557947802973,,36.68132902580841,80.91422526041666,,,,,,,
1557947803016,,,,6.842587725042503,-11.372458457946777,-5.257667064666748,0.5973533391952515,,153.13361983325126,35.32633538823374
1557947803033,,35.5963148971545,,,,,,,,
1557947803073,,36.91695285978442,,,,,,,,
1557947803074,3.0,,,6.8237231838344385,-11.731588363647461,-7.647080421447754,0.7314286231994629,1000.3699951171875,161.77457411450442,34.931934430114026
1557947803113,,33.85734897162161,,,,,,,,
1557947803123,,,96.6357421875,,,,,,,
1557947803126,,,,9.181564801391342,-12.205639839172363,-10.879252433776855,4.480748653411865,,178.4181058764247,34.59971255557888
1557947803153,,31.99133124005558,96.6357421875,,,,,,,
1557947803193,,31.445375608451105,96.6357421875,,,,,,,
1557947803194,,,,7.7166690878593105,,,4.701014995574951,,,34.118910362815754
1557947803195,,,,,-13.00051498413086,-9.313444137573242,,,184.91152938168648,
1557947803196,3.0,,,,,,,,,
1557947803205,,,57.808707101004465,,,,,,,
1557947803233,,31.237980651524854,57.808707101004465,,,,,,,
1557947803266,,,,,,,,,,33.59493975398184
1557947803267,1.0,,,9.129603230774444,-12.047622680664063,-4.941632270812988,3.532644510269165,1000.3599853515625,189.05979013258036,
1557947803293,,30.240835471111556,57.808707101004465,,,,,,,
1557947803327,,,,8.75632836513046,,,2.182314872741699,,,32.97438367722441
1557947803328,,,,,-10.884040832519531,-3.1316158771514893,,,176.50278422936972,
1557947803329,1.0,,,,,,,,,
1557947803333,,29.976921179417264,,,,,,,,
1557947803373,,29.40104625100517,0.0,,,,,,,
1557947803397,,,,,,,,,,32.879173097491815
1557947803398,,,,7.749470846508096,-10.716446876525879,-4.716577529907227,1.3443442583084106,,160.81312936617675,
1557947803413,,28.742752032598226,,,,,,,,
1557947803453,,31.004764489303803,0.0,,,,,,,
1557947803457,,,,7.672381413482719,,,0.9564836025238037,,177.2552525098517,31.452345219974074
1557947803458,8.0,,,,-9.361329078674316,-5.348646640777588,,1000.3499755859375,173.3330983412419,
1557947803508,,,,5.685057734026013,-9.442731857299805,-6.18182897567749,1.416170358657837,,183.02713483119328,31.067991023595642
1557947803513,,44.698124620078836,,,,,,,,
1557947803553,,45.96990977354277,,,,,,,,
1557947803564,,,431.67724609375,,,,,,,
1557947803580,,,,5.8594101561445315,,,1.0809820890426636,,,30.90372248822384
1557947803581,,,,,-10.826580047607422,-7.9631147384643555,,,170.05500369060766,
1557947803593,,41.48533071765462,431.67724609375,,,,,,,
1557947803601,8.0,,,,,,,,,
1557947803633,,38.355272841148235,431.67724609375,,,,,,,
1557947803634,,,,5.801098213141683,,,1.0522516965866089,,141.7356870142791,30.763128323359823
1557947803656,3.0,,,,-9.667786598205566,-4.558559894561768,,1000.3699951171875,,
1557947803673,,38.83669122760229,,,,,,,,
1557947803708,,,,,,,,,,30.423839792716002
1557947803709,,,,6.50588224252961,-11.161767959594727,-4.692635536193848,-0.34596213698387146,,105.36398711785574,
1557947803713,,40.08967339518421,,,,,,,,
1557947803735,3.0,,,,,,,,,
1557947803773,,36.732565470693,,,,,,,,
1557947803780,,,,,,,3.2405519485473633,,,30.35061820216017
1557947803781,,,,4.939626501380902,-11.118672370910645,-7.259219646453857,,,173.82897007498482,
1557947803788,,,66.337890625,,,,,,,
1557947803813,,35.72749899474287,66.337890625,,,,,,,
1557947803825,,,,,,,3.465606927871704,,,30.060439663271335
1557947803826,1.0,,,4.259460242377722,-10.342951774597168,-8.197746276855469,,1000.3699951171875,176.3371521419969,
1557947803853,,33.166115227828826,66.337890625,,,,,,,
1557947803871,1.0,,,,,,,,,
1557947803891,,,,,,,4.045003890991211,,,30.916662240932045
1557947803892,,,,5.835177248213323,-7.757213592529297,-8.346187591552734,,,197.9236954487211,
1557947803893,,33.480140594342735,,,,,,,,
1557947803933,,32.224793757069904,,,,,,,,
1557947803943,,,64.9658203125,,,,,,,
1557947803962,,,,,,,3.1687259674072266,,,31.95089946564243
1557947803963,,,,6.842090980422213,-6.358999729156494,-8.283937454223633,,,197.86606231250448,
1557947803973,,30.224141934870097,64.9658203125,,,,,,,
1557947803999,1.0,,,,,,,,,
1557947804019,,,,7.404902725971727,,-8.283937454223633,2.3977930545806885,,200.2918313169912,33.48402832279011
1557947804020,,,,,-5.319916248321533,,,1000.3599853515625,,
1557947804033,,32.88055367403892,64.9658203125,,,,,,,
1557947804034,,,0.0,,,,,,,
1557947804073,,31.14293987035711,,,,,,,,
1557947804087,,,,8.789196179538939,,,2.6180596351623535,,,34.75068395257148
1557947804088,,,,,-4.994304656982422,-8.801085472106934,,,200.4801396324085,
1557947804113,,43.20145355355336,,,,,,,,
1557947804121,1.0,,,,,,,,,
