timestamp,AccX,AccY,AccZ,BarometerSensor,BrightnessEV,CompassSensor,LinearAccelerometerSensor,MagneticRotationSensor,PitchSensor,DecibelSource
1557947970191,-1.0235714721679687,0.8699908447265625,9.77302688598633,999.1190338134766,-0.23910523698194458,288.692626953125,0.44235997858288684,42.51613381943986,0.0,15.910646070264994
1557947970220,-0.6695576477050782,1.4431489562988282,10.220745849609376,999.1190338134766,-0.23910523698194458,290.25872802734375,0.299500390442408,42.51613097024116,0.0,15.910646070264994
1557947970293,-1.2792398071289064,1.5953823852539064,11.837683410644532,999.1190338134766,-0.2572701738230775,302.379638671875,0.46923357135469507,42.516130307684335,0.0,27.38780558484369
1557947970368,-2.1965322875976563,0.42646316528320316,13.176798706054688,999.1190338134766,-0.27330028364202646,302.379638671875,0.5298028911754724,42.51613026308429,0.0,24.04833716619938
1557947970420,-1.8661692810058594,-0.02125579833984375,12.820090484619142,999.1190338134766,-0.3092588300625822,305.65814208984375,0.18897689438726845,42.51612972945114,0.0,23.07496037913213
1557947970560,-1.0190808105468752,0.00508941650390625,10.746153259277344,999.1190338134766,-0.43485747612207076,303.9872131347656,0.5460601580108498,42.51613068290658,0.0,21.4921911265538
1557947970620,-2.059267730712891,1.8474581909179688,9.654623107910156,999.1190338134766,-0.426997447820012,298.8458557128906,0.5699967417658182,42.51613430706474,0.0,21.367205671564065
1557947970691,-1.3870156860351563,1.7345928955078125,6.52448226928711,999.1190338134766,-0.3721919642213496,298.8458557128906,0.9034658332724801,42.51612990977486,0.0,20.21189299069938
1557947970753,-0.8604107666015626,2.513423309326172,8.05055877685547,999.1190338134766,-0.39702366801558275,296.4044494628906,0.3264353435620847,42.51613160566979,0.0,18.750612633917
1557947970820,-1.0451266479492187,1.695524139404297,7.0998857116699226,999.1190338134766,-0.4424706602319459,296.4044494628906,0.24558626206508385,42.516130292680046,0.0,20.3342375548695
1557947970891,-1.6338523864746095,1.332678680419922,8.259374542236328,999.1190338134766,-0.5351021342887101,296.4044494628906,0.31005575442592337,43.851004087132026,0.0,19.344984512435676
1557947970954,-1.6316070556640625,2.049837341308594,10.082882537841797,999.0977478027344,-0.5425611098100346,300.7025146484375,0.537918362301599,43.85100665265675,0.0,21.55336037465062
1557947971025,0.3531156921386719,1.1079959106445314,12.375814361572266,999.0977478027344,-0.5121372855204342,300.7025146484375,0.8773640537393552,43.85100219698534,0.0,30.870712059065355
1557947971091,-0.5655239868164063,2.4399261474609375,12.051588592529297,999.0977478027344,-0.5283111661386317,300.7025146484375,0.35225603499768804,43.850996177448295,0.0,27.307822756663892
1557947971154,1.845212860107422,1.1981085205078126,9.930349731445313,999.0977478027344,-0.6724029710385354,300.7025146484375,0.812537243432288,43.8509867372612,0.0,26.434526764861875
1557947971220,1.6780105590820313,1.7060023498535157,7.325616302490235,999.0977478027344,-0.8265739011662954,304.711669921875,0.7868110461499056,43.850985817878474,0.0,24.800069429571504
1557947971293,1.7625846862792969,0.9765692138671875,7.300169219970703,999.0977478027344,-0.92766002628061,306.15753173828125,0.2655732279078844,43.85097759586785,0.0,22.430380486862944
1557947971354,3.3322206115722657,0.5599855041503906,6.294560394287109,999.0977478027344,-0.8818563366674851,307.65155029296875,0.5068739266346797,43.85097880230805,0.0,28.305886686851444
1557947971419,7.163503417968751,1.1216175842285157,8.193960571289063,999.0977478027344,0.5444084180346128,307.65155029296875,1.128062038270543,43.85097409850723,0.0,24.548448600085102
1557947971491,8.336913299560548,2.262095947265625,5.196294250488282,999.0977478027344,0.4576064175123882,301.5493469238281,0.8792360239499285,42.292702500221985,0.0,19.19078092376074
1557947971554,7.225175170898438,-0.8538244628906251,5.848038940429688,999.0977478027344,-0.5942850588875147,289.8291320800781,0.6171527878204174,42.29269414301006,0.0,21.398790864012366
1557947971620,11.08175537109375,2.937341766357422,7.833959197998047,999.0977478027344,-2.631605115531981,271.8759765625,1.321436711089256,42.292690170254865,0.0,25.61101383649056
1557947971692,11.580518188476564,2.2809567260742187,10.798694000244142,999.0977478027344,-2.7282611573067084,255.65609741210938,0.936691334289887,42.292688429976224,0.0,24.216039268698314
1557947971754,10.98640365600586,0.7493417358398438,9.485474853515626,999.0977478027344,-2.7062576152159017,239.6597442626953,0.3949637647272145,41.89656754707252,0.0,24.13299764081252
1557947971820,7.2862481689453125,1.6149916076660158,2.2770648193359375,999.0977478027344,-2.6649548688859106,235.1256103515625,2.0609942072195158,41.896558479183945,0.0,26.5991620006985
1557947971890,8.369395751953125,-0.1273851013183594,5.365891571044922,999.0977478027344,-3.383773116341857,231.47689819335938,0.5140318133648176,41.89655137331155,0.0,28.494194137968996
1557947971954,6.4357168579101565,0.46538223266601564,3.240012359619141,999.0791320800781,-3.7883029578023075,223.59588623046875,0.6575331526278297,41.89654624720805,0.0,22.764618041732444
1557947972025,6.927593994140626,-1.1560459899902344,2.2697300720214844,999.0791320800781,-4.2157241815369835,211.0682373046875,0.5305875948271129,41.89653984637946,0.0,27.92391689498254
1557947972091,4.929698638916016,-2.9464727783203126,3.031645660400391,999.0791320800781,-3.7161531720464724,208.05618286132812,0.7462069094369194,41.89653822638113,0.0,25.118833609788744
1557947972154,9.514065399169922,-3.360960845947266,2.712359619140625,999.0791320800781,-5.614273558027259,206.21249389648438,1.1877527199098334,41.896529228262025,0.0,25.171958979499745
1557947972220,14.204112396240236,-5.298531646728516,3.2551309204101564,999.0791320800781,-5.4887426759434,196.46493530273438,1.4769989555917091,41.89652586068007,,31.63757523981956
1557947972294,9.761949920654297,-3.4142500305175782,4.2535546875,999.0791320800781,-7.073705176664556,192.46189880371094,0.8068917152475427,41.89652410144713,,35.63243701140398
1557947972354,10.143057403564454,-3.8308337402343753,7.500153350830079,999.0791320800781,-7.073705176664556,215.01768493652344,0.894851251109789,41.89652493559555,42.2216796875,38.70988813760575
1557947972421,-2.1079165649414064,-20.032242736816407,3.7386254882812504,999.0791320800781,-4.073705176664556,212.8428955078125,5.166615047847106,41.89652294353204,31.826171875,45.083546192351776
1557947972491,1.4271322631835939,-6.530769195556641,0.40550674438476564,999.0791320800781,-5.751777081777194,222.18795776367188,2.56637200566239,41.896525095755386,31.826171875,53.649953804147145
1557947972553,21.75875244140625,10.339898071289063,-4.485721893310547,999.0791320800781,-5.4887426759434,241.8744354248047,8.152067057796225,41.89652528103669,29.7509765625,58.76846304122138
1557947972634,6.056405639648438,-0.6089337158203125,1.3148657226562501,999.0791320800781,-7.073705176664556,233.34564208984375,3.9213155612231527,41.8965226968795,,54.47929769007295
1557947972691,7.301666107177735,-2.2673350524902345,-1.713486785888672,999.0791320800781,-7.073705176664556,221.13217163085938,1.0805716280756772,41.89652265533668,44.9462890625,36.768764319731375
1557947972754,7.663463745117188,-3.8585261535644535,-0.6574328613281251,999.0791320800781,-7.073705176664556,216.7136993408203,0.7437503479591945,41.89652433277771,44.9462890625,41.14410802397836
1557947972822,10.091414794921876,-3.0347891235351563,-1.1370355224609376,999.0791320800781,-7.073705176664556,214.57009887695312,0.6085532296994386,41.89652730392453,,40.109356647043846
1557947972891,10.887459411621094,-2.472408599853516,-0.5062472534179687,999.0791320800781,-7.073705176664556,218.66561889648438,0.40294453743237074,41.89652618026391,312.2314453125,39.37818684698356
1557947972954,17.733473052978518,-6.116281127929688,2.1128562927246093,999.0617370605469,-7.073705176664556,225.231201171875,2.115462822923862,41.89652535778541,312.2314453125,41.49957708891059
1557947973025,7.930508422851563,0.3728746032714844,1.6428337097167969,999.0617370605469,-6.751777081777194,228.26748657226562,2.450276896026497,41.89652587199938,,36.091673743020195
1557947973091,9.929900665283204,0.6863227844238282,3.5084042358398437,999.0617370605469,-6.4887426759434,230.27432250976562,0.5816793355108718,41.89652531449949,129.04296875,33.53531559077762
1557947973156,8.305927734375,-1.3268408203125002,3.204087066650391,999.0617370605469,-5.266350254606952,230.27432250976562,0.5676182459687986,41.896526273164994,,32.50907699700856
1557947973222,7.893086242675782,0.9743238830566406,1.157991943359375,999.0617370605469,-5.4887426759434,235.45692443847656,0.7244478484456116,41.89652703869536,,36.503075231319364
1557947973293,5.587730255126953,-0.18561401367187502,1.1325448608398438,999.0617370605469,-6.073705176664556,238.09564208984375,0.6638129844760562,41.896525248450374,29.7998046875,46.033392740339664
1557947973354,7.983348541259766,-0.3040177917480469,3.4861006164550785,999.0617370605469,-6.073705176664556,238.09564208984375,0.7133255574225625,41.896525170500475,,48.87988429743501
1557947973420,11.981833648681642,2.6872119140625,3.0780491638183594,999.0617370605469,-6.4887426759434,242.92117309570312,1.3289975136777765,41.896525321750566,,34.31846045698725
1557947973492,12.08661575317383,1.8100360107421876,0.6004014587402344,999.0617370605469,-7.073705176664556,245.26983642578125,0.6894128607876578,41.89652347756132,48.06640625,42.52051637406516
1557947973556,14.442117462158205,0.5242098999023438,0.8806187438964844,999.0617370605469,-7.073705176664556,246.3369140625,0.7991902860604873,41.89652472963956,,36.867256210745424
1557947973622,9.147926788330079,-1.3460009765625,6.483617248535157,999.0617370605469,-7.073705176664556,243.79986572265625,1.8911773300583636,41.89652491027615,183.91659691220238,33.73463721632369
1557947973692,6.75679916381836,-3.301384735107422,4.439168701171875,999.0617370605469,-6.073705176664556,237.0664520263672,1.102368240465956,41.89652688252547,183.91659691220238,31.335389083702175
1557947973755,8.472830657958985,-0.8924441528320313,2.7598109436035156,999.0617370605469,-6.073705176664556,239.18704223632812,0.6086492267554603,41.89652645136992,,31.69674434058807
1557947973822,7.988288269042969,1.02746337890625,-0.21630020141601564,999.0617370605469,-6.751777081777194,241.00830078125,1.0918944255829781,41.896526779036975,55.71964518229167,30.770043267933502
1557947973891,7.222031707763672,-1.550625457763672,0.2411485290527344,999.0617370605469,-7.073705176664556,238.87010192871094,0.5303597867149141,45.4197023289231,55.71964518229167,31.844074854123203
1557947973956,8.131690063476563,-2.831960906982422,3.557352447509766,999.0470886230469,-7.073705176664556,228.4501953125,0.9328639317771685,45.419698633205435,0.0,35.1067903103221
1557947974025,8.321495361328125,-4.412973175048828,2.5935067749023437,999.0470886230469,-6.266350254606952,224.3267822265625,0.5148800304299977,45.419688061021034,,26.042260530844704
1557947974092,12.452005920410157,-1.1987072753906252,1.7503102111816407,999.0470886230469,-5.903780175222243,229.0146484375,1.2733459721023574,45.41968320631842,0.0,31.16939646550756
1557947974154,13.085787963867189,-6.043233032226563,7.075636138916016,999.0470886230469,-6.073705176664556,234.4857940673828,1.568580242083518,45.41967795707007,0.0,33.25310371711061
1557947974221,6.459966430664063,-0.8294252014160156,2.9861402893066407,999.0470886230469,-5.903780175222243,237.59933471679688,1.9113595468137952,45.419674200658385,,30.025979807199086
1557947974294,9.489217071533204,-0.02604583740234375,6.715036010742188,999.0470886230469,-5.903780175222243,243.0801544189453,0.9745565167323648,45.419665446963606,0.0,37.985125330313515
1557947974355,8.253386993408203,0.017513580322265625,2.821482696533203,999.0470886230469,-5.751777081777194,246.25082397460938,0.8407701193655319,45.41965799539306,,26.580113966571126
1557947974421,8.105494537353517,1.2340338134765625,0.7569758605957032,999.0470886230469,-6.4887426759434,251.37379455566406,0.7936308151429562,45.419652567837474,,31.058506743851435
1557947974492,6.818919982910157,0.73048095703125,0.7611671447753907,999.0470886230469,-7.073705176664556,251.37379455566406,0.3930374806583647,45.419645459190846,28.9892578125,30.425755124401906
1557947974554,8.038733367919923,1.2714559936523437,2.066303100585938,999.0470886230469,-7.073705176664556,251.37379455566406,0.36776543449455945,45.41964326379766,0.0,28.512583487190753
1557947974621,10.205327911376953,1.3404624938964844,2.661914520263672,999.0470886230469,-7.073705176664556,251.37379455566406,0.6394828596051796,45.419642913917954,0.0,24.638929889859075
1557947974691,10.790161743164063,2.006128234863281,1.9836749267578127,999.0470886230469,-7.073705176664556,253.26162719726562,0.36673745029467086,45.41963246465861,0.0,39.14977472444331
1557947974754,14.443614349365236,0.2942880249023438,1.5729290771484377,999.0470886230469,-7.073705176664556,253.26162719726562,1.0665340880174468,45.419629039589985,,44.58214677865592
1557947974820,11.2039013671875,-0.0999920654296875,3.4913397216796875,999.0470886230469,-7.073705176664556,253.26162719726562,0.7445506941781211,45.41962430381696,128.212890625,32.260841159758236
1557947974891,7.393574981689453,-3.2518377685546875,4.1050634765625,999.0470886230469,-7.073705176664556,243.0823974609375,1.4019299299378076,45.41962197254055,128.212890625,30.972573096934198
1557947974954,7.219786376953126,-1.8776953125,3.698957977294922,999.0333557128906,-6.4887426759434,240.7713623046875,0.3459276426490433,45.41961999399233,,32.265999052073575
1557947975025,9.638456726074219,0.6499484252929688,0.42691223144531254,999.0333557128906,-7.073705176664556,239.29066467285156,1.1843423497288421,45.419620791441254,54.609375,35.52668216112193
1557947975089,8.09606414794922,-1.2467573547363282,0.14938934326171877,999.0333557128906,-7.073705176664556,239.29066467285156,0.43413357536988534,45.419621064411785,54.609375,29.916690073799487
1557947975154,6.590345306396484,-3.36021240234375,3.2057336425781253,999.0333557128906,-6.751777081777194,228.4097442626953,1.0661593946785901,45.419619649841344,27.998046875,34.504030861553666
1557947975221,8.225993957519531,-2.558928680419922,2.6438021850585938,999.0333557128906,-6.266350254606952,227.00283813476562,0.3025649458561716,43.04266081734167,,26.720978579357176
1557947975291,10.196795654296876,-2.894530792236328,2.0016375732421876,999.0333557128906,-6.266350254606952,228.66282653808594,0.5821859913170092,43.0426594339041,,37.91760804012905
1557947975354,10.76651092529297,-3.967050476074219,3.3858091735839846,999.0333557128906,-6.4887426759434,231.48765563964844,0.515138227384058,43.042657161047565,482.0751953125,32.900346113625176
1557947975420,11.437266082763673,-3.6682717895507815,6.842121734619141,999.0333557128906,-6.4887426759434,232.51870727539062,0.6552924148611193,43.04264983550433,401.7236328125,34.79719235439571
1557947975492,7.458839263916016,0.3430865478515625,5.3016751098632815,999.0333557128906,-6.4887426759434,239.91220092773438,1.3753032408494068,43.0426456786127,,29.35003151453655
1557947975554,9.080267486572266,-0.43529479980468755,4.666096801757813,999.0333557128906,-6.4887426759434,243.0797576904297,0.3778664073317769,43.04264266516358,,30.064660422492317
1557947975620,8.86920639038086,0.7415579223632813,1.3817765808105469,999.0333557128906,-6.266350254606952,245.53982543945312,0.8148156830822065,43.042643648795874,0.0,30.09450895798694
1557947975692,7.477849731445313,1.9269429016113282,0.8195457458496094,999.0333557128906,-7.073705176664556,247.137939453125,0.5838955820692355,42.78417662864891,0.0,31.809855807867304
1557947975755,7.025640106201172,-0.06271957397460938,1.0798544311523437,999.0333557128906,-7.073705176664556,245.5140380859375,0.4511574324281104,42.784177774066215,0.0,27.958800173440753
1557947975821,8.18333267211914,0.961450653076172,3.430865478515625,999.0333557128906,-7.073705176664556,245.5140380859375,0.6521043659521254,42.784167836749525,0.0,24.1161970596323
1557947975890,10.553204498291016,1.1442205810546875,2.371967468261719,999.0333557128906,-7.073705176664556,245.5140380859375,0.6682480142474564,42.78416269019275,0.0,25.211380837040362
1557947975955,12.203672332763672,1.502725067138672,1.467099151611328,999.0171813964844,-7.073705176664556,247.9464874267578,0.6600394612947469,42.784157215205184,,35.798978696031035
1557947976025,14.337784423828126,1.8145266723632814,1.6708255004882813,999.0171813964844,-7.073705176664556,247.9464874267578,0.6860101334711448,42.78415579212821,,34.714384073892994
1557947976089,9.200916595458985,-2.3047572326660157,4.518653411865235,999.0171813964844,-7.073705176664556,244.23434448242188,1.6098175284532872,42.78415785008342,116.47619047619048,34.276483711869325
1557947976153,7.197931823730469,-3.7065921020507813,5.793402557373047,999.0171813964844,-7.073705176664556,239.80551147460938,1.1416382187550778,42.78415550486022,,32.91812687467119
1557947976221,8.40696762084961,-1.9235000610351562,3.9577697753906254,999.0171813964844,-6.4887426759434,237.4578857421875,0.44822891768362877,42.784158131398506,0.0,32.555137128195334
1557947976293,9.496402130126954,0.45535308837890626,-0.34248779296875004,999.0171813964844,-7.073705176664556,237.4578857421875,1.4364803915691808,42.78415428875156,0.0,37.753919716966124
1557947976354,6.501280517578126,-2.6701473999023437,1.2219090270996094,999.0171813964844,-7.073705176664556,229.6311492919922,0.9863729237855825,42.78415256794927,,35.54125581513013
1557947976421,7.271578674316407,-2.3778053283691407,2.8601023864746096,999.0171813964844,-7.073705176664556,228.49667358398438,0.448089668669581,42.784152688362475,119.4482421875,33.61538971269279
1557947976490,8.414901123046876,-3.316802673339844,2.615511016845703,999.0171813964844,-7.073705176664556,226.9098358154297,0.39444041139028424,42.78415690875323,119.4482421875,29.319661147281728
1557947976554,11.782747650146485,-3.6281552124023437,1.7203724670410157,999.0171813964844,-7.073705176664556,229.82293701171875,0.9499794544600001,42.78415535618003,,27.98650645445269
1557947976621,12.887899475097656,-5.097948760986329,5.881269836425782,999.0171813964844,-7.073705176664556,230.95823669433594,1.1799573133482155,42.78415414272656,0.0,33.3665982345442
1557947976690,9.574240264892579,-3.42966796875,6.158643035888672,999.0171813964844,-6.751777081777194,237.312255859375,0.8324702470419022,42.78415657083442,0.0,28.567288903828825
1557947976753,7.287146301269532,-0.052241363525390626,5.900280303955078,999.0171813964844,-6.751777081777194,242.48231506347656,1.1880218112460388,42.78415552968503,0.0,27.67897616018091
1557947976821,9.459878082275392,-0.09415420532226564,4.213737487792969,999.0171813964844,-6.4887426759434,247.3229217529297,0.5918602453461137,42.7841547482255,0.0,27.535830588929066
1557947976887,8.944050750732423,1.0475216674804688,1.2570858764648438,999.0171813964844,-6.4887426759434,251.7221221923828,0.9106678090501827,42.784155745163105,0.0,29.75431808509263
1557947976954,8.298443298339844,1.3169613647460938,1.0169851684570312,998.9960479736328,-7.073705176664556,251.7221221923828,0.3550066829933348,42.784153343505565,0.0,28.363241157067517
1557947977024,7.512278137207032,-0.032183074951171876,1.1683204650878907,998.9960479736328,-7.073705176664556,252.8968963623047,0.38431459833016246,42.784157098266725,0.0,28.344207036815323
1557947977089,7.987988891601563,0.9842033386230469,2.380499725341797,998.9960479736328,-7.073705176664556,252.8968963623047,0.350716993402991,42.78415617210449,0.0,26.11723308007342
1557947977153,10.335407409667969,1.893113250732422,3.123853912353516,998.9960479736328,-7.073705176664556,254.29299926757812,0.7095253241916444,42.7841576438069,0.0,22.4551266781415
1557947977220,12.734468536376953,1.3440550231933595,2.1585113525390627,998.9960479736328,-7.073705176664556,254.29299926757812,0.7737383666897953,42.78415553333264,0.0,32.6150077319828
1557947977290,14.75526626586914,1.913470916748047,3.7688626098632816,998.9960479736328,-7.073705176664556,254.29299926757812,0.7899621602423738,42.78415458136438,,33.19314304090512
1557947977353,7.388335876464844,-3.964954833984375,3.9363642883300782,998.9960479736328,-7.073705176664556,250.48350524902344,2.2068484929290317,42.784153469472336,164.6240234375,32.64817823009536
1557947977420,7.34118392944336,-2.737207946777344,4.729564819335938,998.9960479736328,-6.751777081777194,246.69837951660156,0.4900918827737275,42.784156838528894,0.0,30.60320028688285
1557947977490,8.369246063232422,-1.041683807373047,2.478396148681641,998.9960479736328,-7.073705176664556,246.69837951660156,0.6679435979020875,42.784155610944346,0.0,36.92053365034081
1557947977554,7.669451293945313,-0.8487350463867188,-0.8288264465332031,998.9960479736328,-7.073705176664556,247.79617309570312,0.9923772115945315,42.78415497288398,,32.44029589030021
1557947977621,6.834337921142579,-2.29921875,2.3153851318359377,998.9960479736328,-7.073705176664556,243.58349609375,0.715973484654804,42.78415587745292,100.33203125,30.948203803548
1557947977689,7.852819976806641,-3.2590228271484376,2.825973358154297,998.9960479736328,-7.073705176664556,239.90646362304688,0.4708923167455397,42.78415607707422,100.33203125,29.49390006644913
1557947977753,8.701255645751953,-3.207679595947266,1.8019528198242187,998.9960479736328,-6.751777081777194,241.1787872314453,0.3302602903183797,42.784155320252395,0.0,27.993405494535818
1557947977820,9.5944482421875,-3.185076599121094,2.0311262512207033,998.9960479736328,-6.751777081777194,245.53533935546875,0.2888674806719394,40.37735298536069,0.0,32.545480771089736
1557947977889,12.417278137207031,-2.8806097412109377,2.740800476074219,998.9960479736328,-7.073705176664556,248.92318725585938,0.8016807026327358,40.37734964526093,0.0,30.425755124401906
1557947977953,13.716426544189455,-6.301595764160156,6.0677819824218755,998.9682769775391,-6.751777081777194,253.5081329345703,1.4164148404322687,40.377348762858304,0.0,29.88558956878616
1557947978020,6.548582153320313,-1.3398637390136718,4.099225616455079,998.9682769775391,-6.751777081777194,257.1900939941406,2.0346816308085396,40.37734821548873,0.0,29.74971994298069
1557947978088,9.308393096923828,-1.962568817138672,7.120243377685547,998.9682769775391,-6.073705176664556,263.3878173828125,0.7510687310335934,40.377348523417595,0.0,27.888751157754168
1557947978154,8.036338348388671,-1.9764898681640626,3.054548034667969,998.9682769775391,-6.4887426759434,264.871826171875,0.8811982670336925,40.37734775090329,0.0,27.21810615212547
1557947978220,9.047186279296875,1.0114466857910156,1.061143341064453,998.9682769775391,-6.751777081777194,270.0744934082031,1.052852405886292,40.377348031551776,0.0,29.921114877869496
1557947978287,8.162825317382813,0.9877958679199219,-0.5813909912109375,998.9682769775391,-7.073705176664556,275.73162841796875,0.6397030513300367,40.37734619124748,0.0,27.067177823367587
1557947978353,7.648644561767578,-0.04176315307617188,0.178428955078125,998.9682769775391,-7.073705176664556,280.64239501953125,0.27609913261287355,40.377348086247615,0.0,27.38780558484369
1557947978420,8.316555633544922,0.49412246704101564,2.0179536437988284,998.9682769775391,-7.073705176664556,283.09814453125,0.49338128107365525,40.37734889593846,0.0,22.85557309007774
1557947978488,9.187145233154297,1.3233979797363282,0.32706985473632816,998.9682769775391,-7.073705176664556,286.0641784667969,0.45462364108360914,40.377347846929794,0.0,33.62105319293773
1557947978554,9.702224121093751,1.8821859741210938,-1.9157162475585938,998.9682769775391,-7.073705176664556,287.533447265625,0.693415490752786,40.37734762008087,,31.322596895310447
1557947978620,9.63995361328125,1.0557545471191407,-1.063238983154297,998.9682769775391,-7.073705176664556,287.15948486328125,0.1870175670400973,40.377348165094,,31.238516409670858
1557947978688,11.86537582397461,0.6390211486816406,0.0508941650390625,998.9682769775391,-7.073705176664556,290.44305419921875,0.6380472508735564,40.377346869637904,0.0,29.781805169374138
1557947978754,12.250225524902344,0.33021331787109376,1.2240046691894533,998.9682769775391,-7.073705176664556,292.9295654296875,0.44451180725171985,43.30377609431053,0.0,30.523090996473236
1557947978821,7.379504241943359,-4.3733056640625,2.9066555786132815,998.9682769775391,-7.073705176664556,295.4382629394531,1.7470382360274133,43.3037735323528,0.0,32.581581933407946
1557947978887,8.702153778076172,-1.3497431945800782,3.1510972595214843,998.9682769775391,-6.4887426759434,299.1422119140625,0.4941434982105841,43.30376944709387,0.0,29.894498176666918
1557947978954,9.832752685546875,1.5684384155273439,0.3023712158203125,998.9352416992188,-7.073705176664556,304.9072570800781,1.1131606959705194,43.30376082817376,0.0,32.68343913951065
1557947979020,8.822353820800782,-1.4431489562988282,0.1333726501464844,998.9352416992188,-7.073705176664556,308.5131530761719,0.6078651888249399,43.30375547783748,0.0,26.159500516564012
1557947979088,9.159452819824219,-1.4241384887695314,1.0511141967773439,998.9352416992188,-7.073705176664556,311.84857177734375,0.22381665918930227,43.30375235294206,0.0,23.010299956639813
1557947979153,9.794282684326172,-1.4295272827148438,0.22827529907226562,998.9352416992188,-7.073705176664556,318.46600341796875,0.23583308392152927,43.30374893972829,0.0,33.490831687795904
1557947979220,9.4603271484375,-0.3483256530761719,-1.4914984130859377,998.9352416992188,-7.073705176664556,322.341552734375,0.5398293103513615,43.30374069209694,0.0,31.156105116742996
1557947979288,11.877500610351563,-1.4299763488769532,-0.46613067626953125,998.9352416992188,-7.073705176664556,327.9786376953125,0.6434687221923363,43.303730276568245,0.0,33.20561680195237
1557947979354,12.68731658935547,-3.6013609313964845,3.2425570678710938,998.9352416992188,-7.073705176664556,333.444091796875,1.1837584013358708,43.303726035407834,0.0,35.12817758564873
1557947979420,5.6661671447753905,0.8286767578125,2.5104295349121095,998.9352416992188,-6.751777081777194,335.3154296875,1.9244958117948952,43.30372378238545,,31.405080430381798
1557947979487,10.219548339843751,-2.5677603149414066,7.553592224121094,998.9352416992188,-6.073705176664556,342.7840881347656,1.6008144560793434,43.30371791665998,0.0,28.943160626844385
1557947979553,9.85355941772461,-1.5883470153808594,1.17595458984375,998.9352416992188,-7.073705176664556,345.2833251953125,1.37001357210825,43.303708272855765,,36.05951157564873
1557947979620,9.855804748535157,1.354233856201172,2.365081787109375,998.9352416992188,-7.073705176664556,352.245849609375,0.7597716738768331,43.30370594990719,,30.82066934285113
1557947979688,8.832682342529298,0.4891827392578125,3.0621821594238283,998.9352416992188,-6.751777081777194,1.4732666015625,0.3105392245368627,43.30370266814332,0.0,24.913616938342727
1557947979754,9.495953063964844,1.3365705871582032,1.978136444091797,998.9352416992188,-6.751777081777194,10.969534873962402,0.4236901907129152,41.989716564428264,0.0,25.514499979728754
1557947979820,8.96410903930664,2.719245300292969,0.8247848510742188,998.9352416992188,-7.073705176664556,22.584909439086914,0.4491937953621759,41.989709218080144,0.0,23.76576957056512
1557947979887,9.548643493652344,1.306333465576172,0.4623884582519531,998.9352416992188,-7.073705176664556,31.18130874633789,0.29753995964562024,41.989708540052725,0.0,34.49015316347786
1557947979953,10.946885833740234,1.2271481323242188,-1.3000465393066407,998.9033508300781,-7.073705176664556,35.46393966674805,0.6155514161710776,41.98970181739697,,30.350292822023683
1557947980020,10.553204498291016,3.3753309631347657,-2.6421556091308593,998.9033508300781,-7.073705176664556,38.94830322265625,0.6895729242004608,41.98970078856343,0.0,30.54613054556888
1557947980088,12.750185852050782,-0.2496807861328125,1.532662811279297,998.9033508300781,-7.073705176664556,44.31755447387695,1.3299514560910772,41.989701495457474,0.0,35.331362882786394
1557947980154,6.730154571533204,-5.056784362792969,6.638096008300781,998.9033508300781,-6.4887426759434,50.34299850463867,2.469110582379909,41.98970442396327,,34.933186082321015
1557947980220,8.089627532958986,-0.026345214843750003,5.773493957519531,998.9033508300781,-6.073705176664556,50.34299850463867,0.6980940159258893,39.76800690783919,28.5498046875,31.31297796597623
1557947980289,11.84426971435547,1.0605445861816407,-0.7414082336425781,998.9033508300781,-7.073705176664556,48.87911605834961,1.9885304613657246,39.768004301575964,28.5498046875,39.72665592266111
1557947980353,8.278235321044923,-2.183060302734375,-0.40236328125000004,998.9033508300781,-7.073705176664556,48.83784866333008,1.0072599300801404,39.76800581049554,,33.4183005692051
1557947980420,8.47687225341797,-2.0758831787109377,3.1759455871582034,998.9033508300781,-6.266350254606952,50.527320861816406,0.8375586709486255,39.76800515657232,97.373046875,32.54306332331286
1557947980487,8.070916442871095,-2.897524566650391,2.0648062133789065,998.9033508300781,-6.266350254606952,48.56305694580078,0.2846911894141466,39.768006901086366,97.373046875,28.567288903828825
1557947980553,13.20419174194336,-2.721790008544922,1.5546670532226563,998.9033508300781,-6.4887426759434,46.7666015625,1.2592995743054278,39.768003592795665,0.0,31.50449409460881
1557947980621,11.85579574584961,-7.9327537536621096,5.162165222167969,998.9033508300781,-6.751777081777194,45.42677688598633,1.4792162482066264,39.76800400835982,0.0,31.4921911265538
1557947980688,7.033274230957032,-2.7330166625976564,5.235662384033203,998.9033508300781,-6.751777081777194,46.760986328125,1.5122649264233634,39.76800450402052,0.0,31.88647295999717
1557947980753,8.823251953125,-0.5513035583496094,7.843838653564453,998.9033508300781,-6.751777081777194,53.81974411010742,1.0533490838114534,39.13305531736527,0.0,28.959747323590644
1557947980820,9.15660873413086,-0.40191421508789066,3.903582458496094,998.9033508300781,-6.4887426759434,57.878814697265625,0.847509160220995,39.133053565018386,0.0,29.91226075692495
1557947980888,7.928861846923828,1.0356962585449219,1.5868501281738283,998.9033508300781,-6.751777081777194,59.79187774658203,0.9274855346393994,39.13305196147093,0.0,30.314084642516242
1557947980953,7.600744171142579,1.6184344482421875,1.0719209289550782,998.8782501220703,-7.073705176664556,62.701805114746094,0.4361906644664401,38.78559734293249,0.0,30.64083435963596
1557947981020,7.426805877685547,0.008831634521484376,0.7647596740722656,998.8782501220703,-7.073705176664556,66.68042755126953,0.38350184007448873,38.78558625269186,,25.670263661590603
1557947981087,9.256301422119142,1.5085629272460939,3.7347335815429688,998.8782501220703,-7.073705176664556,70.77772521972656,0.8771275156835555,38.78558538149246,0.0,27.589118923979736
1557947981154,11.193273468017578,1.858385467529297,2.5137226867675784,998.8782501220703,-7.073705176664556,71.07762145996094,0.6281697287907537,38.78558169718327,0.0,30.88844562727004
1557947981220,13.490845642089845,1.0939251708984377,0.18815872192382813,998.8782501220703,-7.073705176664556,68.56610870361328,0.9601778198579283,38.426258905187034,0.0,38.7034537108096
1557947981288,14.114149475097657,1.5147001647949219,3.080743560791016,998.8782501220703,-7.073705176664556,69.98448181152344,0.6650961776098757,38.42625537058367,,34.089180208467795
1557947981353,7.011269989013672,-3.307072906494141,4.834496612548828,998.8782501220703,-7.073705176664556,71.93219757080078,2.1474702865346895,38.42625258686452,204.5654296875,32.5478968739721
1557947981420,6.943311309814454,-2.4532484436035156,4.298910369873047,998.8782501220703,-6.751777081777194,68.70647430419922,0.44792096197578835,38.42624814309901,0.0,27.543483357110187
1557947981488,9.855056304931642,-0.3011737060546875,1.4829661560058593,998.8782501220703,-6.751777081777194,64.09373474121094,1.068123626248286,38.42624292847367,0.0,41.74931593528442
1557947981554,7.858208770751953,-0.6242019653320313,-0.22348526000976562,998.8782501220703,-7.073705176664556,59.91183090209961,0.6953216448772188,38.42623899122701,,31.83839037056421
1557947981620,6.747069396972656,-2.611319732666016,3.5979180908203126,998.8782501220703,-6.751777081777194,59.91183090209961,1.0075617777111794,38.7206061150457,43.06640625,35.50961752298176
1557947981687,7.240443420410156,-2.8765681457519534,2.5761428833007813,998.8782501220703,-6.751777081777194,60.33507537841797,0.19782255106546617,38.72060630705106,43.06640625,28.62727528317975
1557947981753,9.654922485351562,-3.752696228027344,2.295775909423828,998.8782501220703,-6.751777081777194,57.425010681152344,0.6722251306074826,39.47094556914128,,30.350292822023683
1557947981820,10.915151824951172,-4.011508026123047,3.652554473876953,998.8782501220703,-7.073705176664556,52.71151351928711,0.5809654370529789,39.470941197280226,0.0,32.0194306340165
1557947981887,10.658884735107423,-4.904550933837891,5.7823255920410155,998.8782501220703,-7.073705176664556,54.42546844482422,0.6655270522865011,39.47093826768716,,34.9996186559619
1557947981954,6.61788803100586,0.06915618896484375,5.849086761474609,998.8583374023438,-7.073705176664556,55.6441650390625,1.5536580968968643,39.4709328545987,,26.51278013998144
1557947982020,9.360335083007813,-0.9961784362792969,5.637127532958985,998.8583374023438,-6.751777081777194,59.26017761230469,0.43741619438461554,39.470926215624665,0.0,28.830933585756902
1557947982086,9.365723876953126,-0.31569351196289064,1.9508930969238283,998.8583374023438,-7.073705176664556,62.08835220336914,0.9475020977592515,39.470929390382096,0.0,28.597385661971472
1557947982153,7.863597564697266,2.0549267578125,1.1488609313964844,998.8583374023438,-7.073705176664556,65.40201568603516,0.8444053808848234,39.47092844699925,0.0,28.836614351536177
1557947982220,7.945477294921876,0.07858657836914062,0.757873992919922,998.8583374023438,-7.073705176664556,69.61629486083984,0.39853460380880157,39.470925556761024,,30.199466816788423
1557947982287,6.9201095581054695,0.41029678344726567,1.6340020751953126,998.8583374023438,-7.073705176664556,72.97491455078125,0.32032869528273317,41.08701155267508,0.0,29.47433721887051
1557947982353,8.62251937866211,1.2963043212890626,4.003275146484375,998.8583374023438,-7.073705176664556,75.26821899414062,0.760869686739881,41.08700642061713,,42.937822803300236
1557947982420,10.006541290283204,0.4728666687011719,2.3164329528808594,998.8583374023438,-7.073705176664556,75.26821899414062,0.5305055742978189,41.087002819035625,,24.45604203273598
1557947982487,11.352093200683594,1.272653503417969,2.2279669189453126,998.8583374023438,-7.073705176664556,75.26821899414062,0.48197272156577003,41.08700032752734,66.8701171875,35.09471352102548
1557947982553,15.184723205566407,1.3311817932128907,-0.2763253784179688,998.8583374023438,-7.073705176664556,74.21930694580078,1.251706249393155,41.08699993652343,,36.76053124651872
1557947982620,11.097322998046875,1.187779998779297,2.4375311279296876,998.8583374023438,-7.073705176664556,78.08068084716797,0.9145790805063198,41.08699268205881,,35.91398551281249
1557947982687,7.455097045898438,-2.31837890625,5.629194030761719,998.8583374023438,-7.073705176664556,78.08068084716797,1.68688724303225,41.08698874034388,307.058349609375,28.407332346118068
1557947982753,7.797285461425782,-1.8291961669921877,4.585564270019532,998.8583374023438,-6.751777081777194,73.40940856933594,0.21519966561896822,46.75372547967254,398.9892578125,26.180480967120925
1557947982820,7.901169433593751,0.2472857666015625,1.730251922607422,998.8583374023438,-7.073705176664556,69.08506774902344,0.8746764654968877,46.753723423914344,0.0,28.175653695597806
1557947982888,8.324788513183595,-0.9587562561035157,0.4399351501464844,998.8583374023438,-7.073705176664556,65.83474731445312,0.5303124385881315,46.75371978230159,0.0,35.35167485114944
1557947982953,7.386988677978516,-1.0922785949707032,1.2208612060546875,998.8417053222656,-7.073705176664556,64.82707977294922,0.2464273368383217,46.753713325550905,,30.153597554092144
1557947983020,7.926017761230469,-1.0663824462890625,1.5191908264160157,998.8417053222656,-7.073705176664556,63.326107025146484,0.12527189294707244,46.753701912590735,0.0,28.58537197569639
1557947983087,8.375532989501954,-1.4865586853027344,1.2377760314941406,998.8417053222656,-6.751777081777194,62.31717300415039,0.17914765555863515,46.753697360913385,0.0,24.593924877592308
1557947983153,9.620194702148439,-0.9768685913085938,-0.12304412841796876,998.8417053222656,-7.073705176664556,59.44853210449219,0.5025193122133662,46.753694909886704,0.0,32.23236273102997
1557947983220,12.609029388427736,-0.4201762390136719,-1.8509010314941408,998.8417053222656,-7.073705176664556,56.51482009887695,0.9958531228698368,43.3475905018883,0.0,31.42389466118836
1557947983287,11.082503814697267,-2.2185365295410158,-3.420237579345703,998.8417053222656,-7.073705176664556,57.68769073486328,0.6854042024104827,43.347592125425905,,34.912215762392826
1557947983353,13.973741455078125,-4.041296081542969,1.0620414733886718,998.8417053222656,-6.751777081777194,57.68769073486328,1.3239889607877997,43.34758760127221,,34.583356259919476
1557947983420,4.573589172363281,1.9378701782226564,7.145391082763672,998.8417053222656,-5.614273558027259,62.58346939086914,3.117220946173616,43.34757842041869,155.732421875,34.50095075871602
1557947983488,9.848170623779298,-0.023201751708984378,6.7404830932617195,998.8417053222656,-5.903780175222243,64.20269775390625,0.8588236542944319,43.347575452060696,0.0,26.839471307515122
1557947983553,8.746461639404297,-0.12064910888671876,1.3820759582519533,998.8417053222656,-7.073705176664556,61.97992706298828,1.258605597273172,43.347568439493486,0.0,27.48962861256161
1557947983620,9.117240600585937,1.3130694580078126,1.8830841064453125,998.8417053222656,-7.073705176664556,63.38841247558594,0.3978038017690102,43.347564996469735,0.0,32.89142835932333
1557947983687,9.566306762695312,1.5133529663085938,1.5473323059082031,998.8417053222656,-7.073705176664556,66.16732788085938,0.22932019625413194,43.3475584224884,0.0,31.007150865730818
1557947983753,8.525371398925781,0.4650828552246094,1.8805393981933596,998.8417053222656,-7.073705176664556,70.34896850585938,0.32622182042992187,43.34755148327779,0.0,26.99837725867246
1557947983820,9.916877746582031,0.26240432739257813,2.7994784545898437,998.8417053222656,-7.073705176664556,71.75853729248047,0.3937033444271412,37.75535182812248,0.0,27.745169657285498
1557947983887,12.755574645996095,1.6795074462890627,2.4664210510253906,998.8417053222656,-7.073705176664556,72.97295379638672,0.8484371937597639,37.75535382777014,0.0,33.296012483565185
1557947983953,15.708034973144532,4.34696044921875,1.304237823486328,998.828125,-7.073705176664556,72.97295379638672,1.2329341032640113,37.75535102909864,,36.135247028536526
1557947984022,10.28750701904297,-1.5426919555664063,3.3498838806152347,998.828125,-7.073705176664556,74.7569351196289,1.7610606107111058,37.75535341148816,260.0,31.5836249209525
1557947984087,6.0484721374511725,-3.740571441650391,8.15983154296875,998.828125,-7.073705176664556,76.12554931640625,2.067665155033597,37.755354595763755,260.0,32.62451089730429
1557947984153,6.002068634033203,-4.485721893310547,4.921016693115234,998.828125,-6.751777081777194,71.42031860351562,0.7179458167649263,37.755352425150086,,28.382192219076256
1557947984220,7.912246398925782,-0.8669970703125001,1.8474581909179688,998.828125,-7.073705176664556,69.24515533447266,1.260441269513028,39.19422667725835,31.5673828125,33.78942698613437
1557947984287,9.496402130126954,0.6816824340820313,-0.28036697387695314,998.828125,-7.073705176664556,67.90596008300781,1.076295296600514,39.194227162208314,31.5673828125,33.49277527467955
1557947984353,5.752238159179687,-3.706143035888672,4.358336791992188,998.828125,-6.751777081777194,71.91226196289062,1.582971222840296,39.19422682315536,,34.868553552769434
1557947984420,8.029302978515625,-3.3474888610839844,2.070045318603516,998.828125,-6.751777081777194,70.29015350341797,0.548245544645654,39.19422389774645,67.59373256138393,28.512583487190753
1557947984488,8.946445770263672,-3.5711238098144533,2.588716735839844,998.828125,-6.751777081777194,70.29015350341797,0.3447938075336969,39.194225473525734,0.0,28.08210972924222
1557947984553,11.08744354248047,-2.631078643798828,2.873873748779297,998.828125,-7.073705176664556,72.21768188476562,0.6574448498448265,39.194223499228386,0.0,27.774268223893117
1557947984620,13.866564331054688,-7.09689193725586,5.758375396728516,998.828125,-7.073705176664556,75.95088195800781,1.550877782286368,39.19422677674383,0.0,36.41771470653959
1557947984688,6.530320129394531,-1.4947915649414063,5.297932891845703,998.828125,-6.751777081777194,76.98230743408203,1.9806626358689718,34.051701548644054,0.0,25.658478186735177
1557947984753,8.48600326538086,-1.169667663574219,6.182593231201172,998.828125,-6.4887426759434,80.98632049560547,0.444097898734219,34.051696894490135,0.0,29.566485792052035
1557947984820,9.085356903076173,-0.6036946105957032,3.2947984313964844,998.828125,-6.4887426759434,87.00355529785156,0.7223845325134167,34.051695953954635,0.0,29.916690073799487
1557947984888,9.037007446289063,0.4998106384277344,1.7226177978515627,998.828125,-6.751777081777194,95.3750228881836,0.6515868851379157,34.05169341774306,0.0,30.10723865391773
1557947984954,8.40741668701172,1.213077392578125,1.0674302673339844,998.8134002685547,-7.073705176664556,100.36341857910156,0.42785635676870043,34.05169483542307,0.0,31.238516409670858
1557947985021,6.611002349853516,-0.15627502441406252,0.5260061645507813,998.8134002685547,-7.073705176664556,105.27967834472656,0.5983293893067522,34.05169315201038,0.0,29.16453948549925
1557947985087,7.065606994628906,0.29832962036132815,3.225941619873047,998.8134002685547,-7.073705176664556,105.27967834472656,0.6238149526013329,34.05169278631072,0.0,30.047511555910013
1557947985153,8.841663665771485,1.5084132385253908,4.330345001220703,998.8134002685547,-7.073705176664556,110.2594985961914,0.6928643322479281,36.29070502632049,0.0,21.818435879447726
1557947985220,11.374097442626955,0.24025039672851564,3.100203094482422,998.8134002685547,-7.073705176664556,114.66573333740234,0.8060744303867443,36.2907020963057,0.0,32.14048679411941
1557947985288,13.799354095458986,-0.14744338989257813,1.7742604064941407,998.8134002685547,-7.073705176664556,118.22587585449219,0.9021262023143692,36.290699583960695,0.0,37.76119799052988
1557947985353,14.539415130615236,3.2183074951171875,3.2720457458496095,998.8134002685547,-7.073705176664556,122.28227233886719,0.9612513159744569,36.29069626284889,,31.99480914862356
1557947985420,7.874973907470704,-3.0421238708496094,4.395160217285157,998.8134002685547,-7.073705176664556,125.15802001953125,2.104210629212537,36.290692149800414,34.7900390625,33.44392273685111
1557947985487,6.811285858154298,-4.994513854980469,5.5853352355957036,998.8134002685547,-7.073705176664556,125.15802001953125,1.1252126370879305,36.29068894133002,34.7900390625,29.434945159061026
1557947985554,7.880961456298828,-2.293081512451172,4.136947174072266,998.8134002685547,-7.073705176664556,124.04664611816406,0.6550887621275832,36.29068243659024,0.0,24.39332693830263
1557947985620,8.511001281738281,-1.2076885986328125,1.5413447570800782,998.8134002685547,-7.073705176664556,125.5126724243164,0.7218299669869418,36.2906802255312,0.0,21.67317334748176
1557947985689,7.342082061767578,-2.568658447265625,1.8552420043945312,998.8134002685547,-7.073705176664556,129.2184600830078,0.35251015405594877,36.29067735281091,0.0,22.69512944217916
1557947985754,7.514523468017578,-1.08015380859375,2.8063641357421876,998.8134002685547,-7.073705176664556,131.53599548339844,0.3823377411566701,36.29067625881138,0.0,25.526682161121933
1557947985821,8.67955078125,-1.5899935913085939,0.7839198303222656,998.8134002685547,-7.073705176664556,134.12368774414062,0.5361101232987978,36.290674047343586,0.0,24.955443375464483
1557947985887,8.870254211425781,-1.3033396911621093,0.9122030639648437,998.8134002685547,-7.073705176664556,139.574462890625,0.15567286120302487,36.29067320722463,0.0,29.800033715837465
1557947985954,9.261241149902345,-1.4174024963378906,0.36539016723632817,998.7937927246094,-7.073705176664556,143.60752868652344,0.20263358329171308,36.290673324194266,0.0,29.425041061680805
1557947986022,10.639724578857422,-0.9842033386230469,-1.5569123840332033,998.7937927246094,-7.073705176664556,150.40380859375,0.6503365510389969,36.290671747679184,0.0,30.265332645232967
1557947986087,12.391232299804688,-2.0142114257812502,-2.1574635314941406,998.7937927246094,-7.073705176664556,153.6188201904297,0.6441809832704232,36.29067309290605,0.0,34.355258514986545
1557947986153,12.25905715942383,-4.358636169433594,1.3392649841308595,998.7937927246094,-7.073705176664556,155.5909423828125,1.0350405020709197,36.29067332965652,,37.386220279179426
1557947986220,7.356152801513672,1.016685791015625,4.801864471435547,998.7937927246094,-6.4887426759434,155.5909423828125,1.9946748097308657,40.81869960755295,,31.679078100014802
1557947986289,8.290809173583984,0.05763015747070313,6.547384643554688,998.7937927246094,-5.903780175222243,158.89234924316406,0.7084053008053574,40.81870050355255,269.6728515625,29.916690073799487
1557947986354,8.915011138916016,-0.8497828674316407,3.0491592407226564,998.7937927246094,-6.073705176664556,167.3464813232422,0.7436813994464315,40.818700309273815,0.0,25.301996982030822
1557947986420,9.529932403564453,1.0898835754394531,2.804717559814453,998.7937927246094,-6.751777081777194,169.5771942138672,0.5268160629169857,40.81870080376567,0.0,29.590413923210935
1557947986487,8.545279998779296,0.9877958679199219,2.813998260498047,998.7937927246094,-6.751777081777194,175.45018005371094,0.2227220620578041,40.818701173606215,0.0,24.409090820652178
1557947986554,9.679321746826172,0.6101312255859376,2.288291473388672,998.7937927246094,-7.073705176664556,182.78245544433594,0.28510629756666905,42.034582749255,0.0,24.50249108319361
1557947986620,8.915460205078125,1.6904347229003907,2.514920196533203,998.7937927246094,-7.073705176664556,196.9807586669922,0.28510941610776647,42.034580582949694,0.0,26.344772701607315
1557947986689,8.651409301757813,1.0303074645996095,2.5774900817871096,998.7937927246094,-7.073705176664556,203.5240478515625,0.14383388346082385,42.03458231007844,0.0,23.909351071033793
1557947986754,9.912686462402345,2.0046313476562503,2.0046313476562503,998.7937927246094,-7.073705176664556,209.14694213867188,0.38859941780570456,42.03458242784541,0.0,27.032913781186615
1557947986820,11.106603698730469,1.7705181884765626,0.8954379272460938,998.7937927246094,-7.073705176664556,215.13787841796875,0.4847316772022664,42.03458148287722,0.0,37.69229581736594
1557947986887,15.39847869873047,2.694995727539063,-0.00868194580078125,998.7937927246094,-7.073705176664556,223.11695861816406,1.2265088441565852,42.03458348630946,0.0,34.340896384178905
1557947986954,11.393706665039064,-0.8652008056640625,3.770808563232422,998.7738800048828,-7.073705176664556,223.11695861816406,1.3970653175876262,42.03458226894754,,36.48555155662671
1557947987022,5.780229949951172,-3.021167449951172,6.071075134277344,998.7738800048828,-7.073705176664556,216.19049072265625,1.9195995932336087,42.034579984967685,433.0859375,35.462958351214425
1557947987087,7.707771606445313,-1.6666342163085939,4.548142089843751,998.7738800048828,-7.073705176664556,214.35281372070312,0.2528608799963366,43.00695800551236,,29.556877503135055
1557947987153,8.56219482421875,0.8190966796875,0.7908055114746094,998.7738800048828,-7.073705176664556,220.975830078125,1.1845574793356264,43.00695664593771,,30.346284566253203
1557947987220,8.284671936035156,-0.04894821166992188,-0.5468128967285156,998.7738800048828,-7.073705176664556,220.975830078125,0.5810445668804065,43.00695519337632,0.0,33.24693913861775
1557947987286,8.098908233642579,-1.591490478515625,2.281106414794922,998.7738800048828,-7.073705176664556,217.36016845703125,0.6858179589607571,43.006956772916055,,33.62105319293773
1557947987353,7.624245300292969,-4.217479705810547,3.0659243774414064,998.7738800048828,-7.073705176664556,215.54483032226562,0.8361170560684866,43.00695768387976,,26.9284691927723
1557947987420,11.981534271240236,-2.7872039794921877,0.7448510742187501,998.7738800048828,-7.073705176664556,218.09259033203125,1.1794391344614665,42.97904596387033,0.0,37.3870130043471
1557947987489,11.681258697509767,-4.2116418457031255,3.795956268310547,998.7738800048828,-6.751777081777194,219.48779296875,0.7363775856434579,42.979045722337226,,35.47282307963303
1557947987554,8.583151245117188,-2.8434869384765626,4.678371276855469,998.7738800048828,-6.266350254606952,224.17984008789062,0.8619731238909945,42.9790476557223,109.11962890625,29.439888750737715
1557947987619,8.55396194458008,0.5830375671386719,5.461542663574219,998.7738800048828,-6.4887426759434,230.4419708251953,0.9856060221699537,42.97904807835471,109.11962890625,33.29804522164069
1557947987688,9.111253051757814,0.13546829223632814,2.911146240234375,998.7738800048828,-6.266350254606952,234.7396697998047,0.5845200286507406,42.97904858277164,0.0,32.62451089730429
1557947987754,8.46923812866211,1.2096345520019531,0.6435118103027344,998.7738800048828,-6.751777081777194,236.596923828125,0.7805704374180032,42.979047604821325,,29.32473764677153
1557947987820,6.624474334716798,1.153201904296875,-0.057330780029296875,998.7738800048828,-7.073705176664556,237.97711181640625,0.6109933502393262,42.979047815086595,306.46484375,31.316186643491257
1557947987888,6.8371820068359375,-0.20058288574218752,1.000968475341797,998.7738800048828,-7.073705176664556,237.97711181640625,0.3751035020488779,42.97904650383669,306.46484375,25.563025007672874
1557947987954,10.117760009765625,1.2202624511718752,3.0948143005371094,998.7578582763672,-7.073705176664556,237.97711181640625,1.007500080763726,42.979046494642894,0.0,27.708520116421443
1557947988023,12.096495208740235,2.3366409301757813,1.8059944152832033,998.7578582763672,-7.073705176664556,239.8118896484375,0.8161760838652107,42.97904529970319,0.0,28.182258936139554
1557947988087,14.822626190185547,1.1636801147460938,-1.500479736328125,998.7578582763672,-7.073705176664556,241.85171508789062,1.236949831101731,42.97904574412504,0.0,41.14043562548077
1557947988154,12.082574157714845,-0.4427792358398438,3.244802398681641,998.7578582763672,-7.073705176664556,239.80062866210938,1.1674460213310727,42.97904502851753,,31.598678470925666
1557947988220,5.787265319824219,-2.2210812377929687,4.974605255126954,998.7578582763672,-6.4887426759434,232.07345581054688,1.9045017363006456,42.97904659969419,131.71773274739581,32.946866242794435
1557947988287,7.443271636962891,-2.1007315063476564,3.387755126953125,998.7578582763672,-6.266350254606952,229.14956665039062,0.2530369461458946,42.97904857890969,131.71773274739581,33.979400086720375
1557947988354,8.716224517822265,2.1868025207519532,0.8574169921875,998.7578582763672,-6.751777081777194,229.14956665039062,1.2065715930665863,48.509423543288484,,39.804578922761
1557947988420,7.328011322021485,-1.5148498535156252,-1.161285095214844,998.7578582763672,-7.073705176664556,227.2740478515625,0.9321440267873282,48.509411204112546,0.0,33.51796306897023
1557947988487,8.65410369873047,-2.243085479736328,1.4765295410156252,998.7578582763672,-7.073705176664556,220.20523071289062,0.6497200455086001,48.509410430697166,,32.474822606770545
1557947988554,7.143894195556641,-3.8432579040527344,3.234024810791016,998.7578582763672,-7.073705176664556,209.5406036376953,0.8029404514490841,48.50940498134726,,32.07365037469072
1557947988620,9.694739685058595,-2.2014720153808596,0.8677455139160156,998.7578582763672,-7.073705176664556,211.93350219726562,0.7754372988455978,48.50940115178583,58.8330078125,24.727564493172125
1557947988688,11.909833374023439,-2.2959255981445312,1.982776794433594,998.7578582763672,-7.073705176664556,214.7966766357422,0.7150729411580964,48.50939689878899,0.0,32.955670999624786
1557947988754,15.640225982666017,-6.979236602783203,6.2222607421875,998.7578582763672,-6.751777081777194,216.60691833496094,1.8776752026166166,48.50938825938124,,34.099331233312945
1557947988820,7.403005371093751,-0.05598358154296875,3.7116815185546876,998.7578582763672,-6.751777081777194,219.3117218017578,2.266803124765748,48.509381670661746,,29.003671286564703
1557947988888,9.440119171142578,-0.7815248107910157,5.343587951660156,998.7578582763672,-6.4887426759434,227.3616943359375,0.3621326190153249,48.50937465622,0.0,28.42609239610562
1557947988954,9.161698150634766,0.21749771118164063,2.48842529296875,998.7471008300781,-6.4887426759434,227.3616943359375,0.6987006066936102,48.50936806554814,0.0,27.9309160017658
1557947989023,8.460556182861328,0.8574169921875,0.9047186279296875,998.7471008300781,-7.073705176664556,230.396728515625,0.6299936976754416,48.509367648622494,0.0,27.075701760979364
1557947989088,6.6259712219238285,0.9045689392089844,0.14879058837890627,998.7471008300781,-7.073705176664556,234.29904174804688,0.6066666437132249,48.50935983814316,0.0,31.238516409670858
1557947989154,7.594008178710938,0.7785310363769532,0.884959716796875,998.7471008300781,-7.073705176664556,234.29904174804688,0.15486782639345054,48.509353251272955,0.0,32.20631019448092
1557947989220,10.577603759765626,1.945953369140625,1.8423687744140627,998.7471008300781,-7.073705176664556,231.7256317138672,0.868103510964062,48.50934798360471,,46.840999611285376
1557947989288,11.29581024169922,0.7455995178222656,1.3831237792968751,998.7471008300781,-6.4887426759434,227.02377319335938,0.4400686249332229,48.50934512219167,,27.40362689494244
1557947989354,10.73208251953125,-0.0061372375488281256,2.808908843994141,998.7471008300781,-5.614273558027259,223.452392578125,0.42520881084243317,48.50933919390591,46.0205078125,34.69674772551798
1557947989420,14.007720794677734,-0.06152206420898438,4.681365051269531,998.7471008300781,-5.751777081777194,224.51991271972656,0.9818445262656259,49.68971766883848,,30.29789470831856
1557947989488,7.85326904296875,-2.940634918212891,5.225333862304688,998.7471008300781,-5.903780175222243,219.4381103515625,1.5517811530899372,49.689716719199694,,30.170333392987803
1557947989553,7.871231689453126,-2.9023146057128906,3.360362091064453,998.7471008300781,-5.4887426759434,217.52540588378906,0.5453948758444987,49.68971354664955,0.0,29.894498176666918
1557947989620,8.764424285888673,-1.756746826171875,2.096689910888672,998.7471008300781,-6.073705176664556,215.8574676513672,0.5012010168262612,49.68970769862543,0.0,34.54387467146955
1557947989689,7.754474487304688,-0.5526507568359376,0.9259744262695313,998.7471008300781,-6.266350254606952,215.8574676513672,0.5789982425735506,49.68970639175218,0.0,31.264561134318043
1557947989754,7.142846374511719,-2.6376649475097658,1.2187655639648438,998.7471008300781,-5.903780175222243,215.8574676513672,0.47878153389618733,49.68969602189638,0.0,30.409976924234904
1557947989820,8.852141876220703,-2.4435186767578125,1.6630416870117188,998.7471008300781,-5.751777081777194,212.88160705566406,0.39427555242568085,49.689692717160895,0.0,27.427251313046984
1557947989888,9.252708892822266,-3.0159283447265626,1.567390594482422,998.7471008300781,-5.373265458523464,212.88160705566406,0.25016025248251283,48.06679731841755,0.0,32.920344359947364
1557947989954,12.389735412597657,-2.4192691040039063,0.6677613830566407,998.7361145019531,-5.614273558027259,216.3399200439453,0.8695379174841876,48.06678908516017,0.0,31.16939646550756
1557947990022,14.48358123779297,-5.1907557678222656,3.524121551513672,998.7361145019531,-5.751777081777194,219.68629455566406,1.1883553681615013,48.06678354069835,0.0,33.71806458507416
1557947990086,8.364755401611328,-1.1018586730957032,2.4270529174804687,998.7361145019531,-5.751777081777194,219.68629455566406,1.5993914179616577,48.066776918051055,0.0,33.19938439980309
1557947990154,7.553143157958985,-0.8120613098144531,4.976401519775391,998.7361145019531,-5.073705176664556,219.68629455566406,0.8632187438352267,48.06677479722161,0.0,29.35003151453655
1557947990221,8.738677825927734,-1.841620330810547,2.578537902832031,998.7361145019531,-4.986242335414216,219.68629455566406,0.5102939390170066,48.06676660544711,0.0,31.46438135285775
1557947990289,7.9520635986328125,-1.3021421813964844,1.1047027587890625,998.7361145019531,-5.373265458523464,221.51174926757812,0.5126801371048842,48.06676370597487,0.0,27.902851640332415
1557947990354,6.466852111816406,-0.6210585021972657,1.9106268310546877,998.7361145019531,-5.373265458523464,221.51174926757812,0.4604841668466656,44.07379285267716,0.0,27.90988475088816
1557947990420,7.665858764648438,-1.5608042907714845,3.0659243774414064,998.7361145019531,-5.073705176664556,221.51174926757812,0.411551734683933,44.07378936507325,0.0,27.458551951737288
1557947990487,9.525741119384767,-1.8209632873535158,2.275867309570313,998.7361145019531,-5.1668145810560375,221.51174926757812,0.5398186947747903,46.99830923490857,0.0,26.93726948923647
1557947990554,10.977871398925782,-1.5010784912109376,1.9609222412109375,998.7361145019531,-5.373265458523464,224.30572509765625,0.5061730753648166,46.99830714730802,0.0,27.347998295888473
1557947990620,11.964918823242188,-3.213816833496094,1.9556831359863283,998.7361145019531,-5.4887426759434,224.30572509765625,0.5566267944455723,46.998308132855975,,39.041202134761996
1557947990688,13.935271453857423,-4.286336517333985,6.602470092773438,998.7361145019531,-5.614273558027259,227.9779510498047,1.3164723920389532,46.99830839077834,,33.71437317404101
1557947990754,6.865173797607422,-4.344415740966797,3.799548797607422,998.7361145019531,-5.373265458523464,226.76744079589844,1.6854701117069104,46.99830559780062,252.41031901041669,28.69818207979328
1557947990820,8.01762725830078,-3.7212615966796876,1.3421090698242188,998.7361145019531,-5.614273558027259,225.3472900390625,0.7343338538696614,46.99830382953525,0.0,30.289777052087782
1557947990887,7.121740264892578,-1.7760566711425783,1.939816131591797,998.7361145019531,-5.751777081777194,223.92465209960938,0.5723323102194043,46.99830773633867,0.0,29.49390006644913
1557947990954,5.7145166015625,-2.285746765136719,0.8575666809082032,998.7117004394531,-5.751777081777194,223.92465209960938,0.49963576559554707,44.75355586650857,0.0,29.232440186302764
1557947991023,6.5009811401367195,-3.1490016174316406,2.1990769958496097,998.7117004394531,-5.751777081777194,223.92465209960938,0.34963751223466416,44.75355419175991,0.0,29.31457870689005
1557947991087,8.821455688476563,-3.5558555603027346,1.9275416564941408,998.7117004394531,-6.073705176664556,225.1704559326172,0.6246843618194675,44.75354664287707,0.0,28.175653695597806
1557947991154,10.08542724609375,-1.987716522216797,0.7168592834472657,998.7117004394531,-6.751777081777194,227.42271423339844,0.6582830927912231,44.75354349950719,0.0,32.42044239369551
1557947991220,8.533155212402344,-2.5740472412109376,2.417622528076172,998.7117004394531,-7.073705176664556,228.74192810058594,0.4463036045707819,44.75353616702213,0.0,34.48087666692341
1557947991289,11.57363250732422,-1.7967137145996095,2.3837928771972656,998.7117004394531,-7.073705176664556,231.2169189453125,0.7195505524886783,44.75353350797438,,32.44029589030021
1557947991354,14.905853118896486,-6.724167022705078,6.849306793212891,998.7117004394531,-7.073705176664556,235.7269744873047,1.926620267929345,44.75352997662677,33.59305245535714,34.39963935920905
1557947991420,7.268135833740235,-1.4527290344238282,4.643493804931641,998.7117004394531,-7.073705176664556,235.7269744873047,1.9654094778785132,44.75352154383069,33.59305245535714,28.94869656745253
1557947991488,7.095395050048828,-2.202370147705078,5.816753997802735,998.7117004394531,-7.073705176664556,240.54563903808594,0.5151137040112048,44.75351743726358,0.0,27.37987326333431
1557947991553,8.565637664794922,-1.482367401123047,4.075125732421875,998.7117004394531,-7.073705176664556,241.907958984375,0.4963496964589284,44.75351364955086,0.0,28.639173769578605
1557947991620,8.893755340576172,0.16121475219726564,2.4233106994628906,998.7117004394531,-7.073705176664556,243.23202514648438,0.7003954232289719,44.75350968370685,0.0,28.382192219076256
1557947991690,6.9148704528808596,-0.0197589111328125,1.7242643737792969,998.7117004394531,-7.073705176664556,245.467529296875,0.5531742772951185,44.75350158805336,0.0,30.346284566253203
1557947991754,6.466403045654297,-0.9415420532226563,3.052153015136719,998.7117004394531,-7.073705176664556,246.88436889648438,0.40322143773202285,44.75349891005559,0.0,30.849335749367164
1557947991820,8.286019134521485,0.9234297180175782,4.260590057373047,998.7117004394531,-7.073705176664556,246.88436889648438,0.6806499058548773,44.75349860796897,0.0,25.526682161121933
1557947991887,9.993967437744141,1.0648855590820312,2.9141400146484377,998.7117004394531,-7.073705176664556,249.73492431640625,0.5970855237802609,44.75350104598571,0.0,27.82472624166286
1557947991954,10.995384979248048,1.1255094909667969,1.915865936279297,998.6775970458984,-7.073705176664556,250.95693969726562,0.49498838220243846,45.08390590996915,0.0,28.208579894397
1557947992023,13.57781478881836,-0.07738906860351563,2.685415649414063,998.6775970458984,-7.073705176664556,250.95693969726562,0.8034233119755969,45.08390336149641,,34.42949869577862
1557947992088,14.94297592163086,2.1547691345214846,3.9797740173339844,998.6775970458984,-7.073705176664556,252.02481079101562,0.7984530857049937,45.08390232674336,,33.10480891462675
1557947992154,8.261919250488281,-2.493065643310547,3.8971458435058595,998.6775970458984,-7.073705176664556,247.31825256347656,1.8586210643849745,45.083901802287365,443.36507161458337,32.21153321954705
1557947992220,6.767726440429688,-2.432890777587891,5.0439111328125,998.6775970458984,-7.073705176664556,241.4244384765625,0.8526853043756589,45.08390449111918,,31.136091510730278
1557947992288,7.128176879882813,-2.139500885009766,3.0335916137695316,998.6775970458984,-6.751777081777194,238.33541870117188,0.4382940965261616,45.08390330470537,0.0,29.258275746247424
1557947992353,8.18572769165039,0.0425115966796875,0.1579216003417969,998.6775970458984,-7.073705176664556,238.33541870117188,1.0197311733902932,45.083904141164155,0.0,35.341530741850626
1557947992420,7.275021514892578,-2.306254119873047,1.5455360412597656,998.6775970458984,-7.073705176664556,234.0970458984375,0.5004513190124058,45.783902166820674,,28.241258339165487
1557947992488,7.515122222900391,-2.8324099731445314,3.386707305908203,998.6775970458984,-7.073705176664556,229.7857666015625,0.5525662370323583,45.78390248526464,0.0,30.24895960107485
1557947992554,8.05924072265625,-3.1989976501464845,2.4137306213378906,998.6775970458984,-7.073705176664556,229.7857666015625,0.23940130679973917,45.783897479553154,0.0,28.102325179950842
1557947992620,9.019044799804687,-2.2047651672363284,2.3930735778808594,998.6775970458984,-7.073705176664556,232.14801025390625,0.348086990208014,45.78389094635546,0.0,26.324572921847246
1557947992687,11.48786087036133,-2.8624974060058594,2.7583140563964843,998.6775970458984,-7.073705176664556,235.87518310546875,0.6999184863573712,45.783886031864085,,31.82984967003582
1557947992754,15.858023071289063,-5.521717529296875,5.787864074707032,998.6775970458984,-7.073705176664556,238.01974487304688,1.637995938440132,45.78387877183973,0.0,30.14520538757924
1557947992820,7.330855407714844,-1.3828244018554687,4.675976257324219,998.6775970458984,-7.073705176664556,241.84097290039062,2.0115350690589326,45.78387523350843,0.0,27.193312869837264
1557947992888,7.90880355834961,-2.4502546691894533,5.222340087890625,998.6775970458984,-7.073705176664556,249.3229522705078,0.3343748681794587,45.78387188989461,0.0,25.774917998372256
1557947992954,8.311765594482422,-1.7760566711425783,3.3543745422363282,998.64501953125,-7.073705176664556,253.5511932373047,0.4654886957700944,45.783866955738674,0.0,28.992731873176037
1557947993021,8.689130859375,0.5138813781738282,1.9131715393066406,998.64501953125,-7.073705176664556,256.48834228515625,0.699983749771116,45.783863936317424,0.0,31.03119253545714
1557947993087,7.898924102783203,0.24069946289062502,0.8569679260253906,998.64501953125,-7.073705176664556,261.8351745605469,0.4486751962022184,45.78386379459447,0.0,28.344207036815323
1557947993153,8.22015609741211,-0.5376818847656251,1.824855194091797,998.64501953125,-7.073705176664556,267.92889404296875,0.21604404302668534,45.78386450028517,0.0,26.94605198933569
1557947993220,8.899443511962891,-0.027991790771484375,1.5645465087890627,998.64501953125,-7.073705176664556,271.11956787109375,0.20195528778009883,45.783861202969696,0.0,24.28134794028789
1557947993289,9.486971740722657,0.9187893676757813,0.4454736328125,998.64501953125,-7.073705176664556,275.3316345214844,0.43135262418886255,45.78386466681509,0.0,26.55138434811382
1557947993354,9.726324005126953,0.511336669921875,-0.6732998657226563,998.64501953125,-7.073705176664556,278.6905822753906,0.3657680245413094,45.78386545553169,0.0,35.548524343720544
1557947993420,8.964707794189454,1.6929794311523438,0.4977149963378906,998.64501953125,-7.073705176664556,283.0391845703125,0.3865196876673671,45.78386395164207,,35.233562066547925
1557947993486,12.891492004394532,0.08562194824218751,2.8635452270507815,998.64501953125,-7.073705176664556,288.9328308105469,1.1859073398019462,45.78386527592586,,40.5850194342965
1557947993554,8.716224517822265,-4.533472595214844,2.332299957275391,998.64501953125,-7.073705176664556,293.6624450683594,1.478395004065546,46.92776527218539,137.58544921875,31.11598524880394
1557947993620,7.551646270751953,-2.278861083984375,3.0050010681152344,998.64501953125,-7.073705176664556,293.6624450683594,0.5819590537608205,46.92776216525153,,27.56636108245848
1557947993688,11.20195541381836,-0.5158273315429688,2.8707302856445316,998.64501953125,-7.073705176664556,297.72052001953125,0.9366859694514064,46.92775764465223,0.0,28.84795363948981
1557947993754,9.227112121582032,-1.2804373168945313,-0.11421249389648438,998.64501953125,-7.073705176664556,304.6754150390625,0.8032132644752374,46.92775020305597,0.0,26.473829701146197
1557947993820,8.271948394775391,-1.6408877563476563,1.5846047973632813,998.64501953125,-7.073705176664556,309.4600524902344,0.4077185767039824,46.927749813449644,0.0,24.28134794028789
1557947993887,8.842561798095703,-1.6172369384765626,0.9080117797851563,998.64501953125,-7.073705176664556,313.84326171875,0.12868144211503493,46.927740831614535,0.0,23.909351071033793
1557947993954,9.890382843017578,-0.841849365234375,0.7698490905761719,998.64501953125,-7.073705176664556,318.23223876953125,0.3416867659693104,46.927737421626595,0.0,27.803173121401514
1557947994022,10.164762268066406,-1.2757969665527344,0.089813232421875,998.6131286621094,-7.073705176664556,322.44781494140625,0.2392468653753436,46.927740351925486,0.0,27.788744720027395
1557947994090,10.87383773803711,-2.013013916015625,0.09131011962890626,998.6131286621094,-7.073705176664556,324.5295104980469,0.2946643843938819,46.92773811872667,0.0,28.260748027008265
1557947994154,13.21182586669922,-3.307222595214844,0.07604187011718751,998.6131286621094,-7.073705176664556,325.95770263671875,0.738948585573978,46.55136903187866,,35.76456532405621
1557947994220,8.252339172363282,-2.369422760009766,4.598736877441406,998.6131286621094,-7.073705176664556,330.92266845703125,1.5675413837773304,46.551367683092636,,36.266482684740105
1557947994288,6.028713226318359,1.0523117065429688,4.544250183105469,998.6131286621094,-6.4887426759434,335.4244384765625,1.2440093465278543,46.551361775860194,131.77734375,37.16337287889549
1557947994354,8.853040008544923,-1.615440673828125,7.898175659179688,998.6131286621094,-5.903780175222243,341.89642333984375,1.1255572077726144,46.55136292641488,67.53153483072916,30.476641946015597
1557947994420,9.367669830322265,0.44697052001953125,3.093916168212891,998.6131286621094,-6.4887426759434,345.0029602050781,1.0853372547151936,46.55136035611545,0.0,28.93206753059848
1557947994489,9.355694732666016,0.7746391296386719,3.0859826660156253,998.6131286621094,-7.073705176664556,352.4834899902344,0.312253021146623,46.55136209130269,0.0,24.28134794028789
1557947994554,9.168883209228516,0.6391708374023438,3.7076399230957033,998.6131286621094,-7.073705176664556,1.998748779296875,0.0998820588506834,46.55136177560242,0.0,24.313637641589875
1557947994620,9.104067993164064,1.325493621826172,2.9738658142089847,998.6131286621094,-7.073705176664556,13.411032676696777,0.23797535521090993,46.55136075729817,0.0,26.294095991027188
1557947994688,8.467441864013672,1.189127197265625,3.120560760498047,998.6131286621094,-7.073705176664556,20.770763397216797,0.16549157104177442,46.55136218405722,0.0,26.0959440922522
1557947994753,9.467362518310548,0.6399192810058594,2.6770330810546876,998.6131286621094,-7.073705176664556,27.05963134765625,0.2724526341393993,46.55136078957026,0.0,23.979400086720375
1557947994820,10.79629898071289,1.189276885986328,2.425256652832031,998.6131286621094,-7.073705176664556,32.05623245239258,0.4083628124380392,46.55135869851965,,34.48242412634439
1557947994887,13.31391357421875,1.3260923767089845,1.8953585815429688,998.6131286621094,-7.073705176664556,35.024200439453125,0.7443486566112956,46.55135720958513,,30.111473607757976
1557947994954,14.671440582275391,1.2063414001464845,4.4499462890625,998.6131286621094,-7.073705176664556,42.73854064941406,0.7944997400415122,46.55135894019212,133.01350911458331,32.93583513496117
1557947995022,7.024891662597657,-3.484603729248047,4.724924468994141,998.58154296875,-7.073705176664556,45.09572219848633,2.1460327004220963,46.55135934949459,156.419677734375,30.261245167454504
1557947995088,5.4003199768066406,-3.526217193603516,5.967939605712891,998.58154296875,-6.751777081777194,52.01598358154297,0.975362496984628,46.55135972289161,0.0,31.16939646550756
1557947995154,7.723788299560547,-1.3129197692871095,2.6664051818847656,998.58154296875,-6.751777081777194,50.95051574707031,0.9496978626898741,46.55135948110228,0.0,30.318122713303705
1557947995221,9.464219055175782,-0.06271957397460938,-0.5583389282226563,998.58154296875,-7.073705176664556,50.95051574707031,1.2015925603964217,46.55135789339309,0.0,39.43593432768369
1557947995288,7.6209521484375005,-2.0478913879394534,3.2907568359375,998.58154296875,-7.073705176664556,54.41484069824219,0.8775420486026361,46.41845751198413,,33.59835482339888
1557947995354,6.197412414550781,-3.949237518310547,4.8982640075683594,998.58154296875,-6.751777081777194,54.41484069824219,0.9357207771444207,46.41845229148554,38.46923828125,29.425041061680805
1557947995420,8.91755584716797,-3.843706970214844,2.6587710571289063,998.58154296875,-6.751777081777194,54.41484069824219,0.6957890041840735,46.418445519419194,38.46923828125,25.118833609788744
1557947995487,11.154953155517578,-3.492686920166016,3.4311648559570314,998.58154296875,-6.751777081777194,53.07179260253906,0.7058748310276904,46.41843802462938,0.0,32.79666944048456
1557947995554,12.731774139404298,-7.001989288330078,8.809929656982423,998.58154296875,-7.073705176664556,53.07179260253906,1.7127266650123951,46.41843174064749,,32.027606873932
1557947995620,6.573879547119141,-0.010927276611328125,4.9108378601074225,998.58154296875,-7.073705176664556,55.687931060791016,2.1683736616195044,46.418427543082224,0.0,29.37016107464814
1557947995689,7.569010162353516,-0.7731422424316406,6.759493560791016,998.58154296875,-7.073705176664556,59.11189270019531,0.3735730262436404,46.418431771115884,0.0,25.634810853944106
1557947995753,9.012608184814454,-0.1598675537109375,3.2733929443359377,998.58154296875,-6.751777081777194,63.185794830322266,0.8866891760359179,46.41843112108688,0.0,28.337843746564786
1557947995820,8.133186950683594,0.3147953796386719,1.2720547485351563,998.58154296875,-7.073705176664556,65.20356750488281,0.7320894692253772,46.418430060279526,0.0,29.434945159061026
1557947995887,7.16395248413086,0.6041436767578126,1.175804901123047,998.58154296875,-7.073705176664556,69.612060546875,0.3591867331876447,46.41842749010066,0.0,30.402066275747114
1557947995954,6.891219635009766,-0.12603790283203126,2.9123437500000002,998.58154296875,-7.073705176664556,74.140869140625,0.4362340591793588,46.41842942725649,0.0,29.809119377768436
1557947996022,10.410401458740235,1.1505075073242188,4.356690216064453,998.5566711425781,-7.073705176664556,75.8189468383789,1.0013162396363637,46.41842634057527,0.0,26.62757831681574
1557947996088,11.494596862792969,1.4061758422851562,2.511327667236328,998.5566711425781,-7.073705176664556,75.8189468383789,0.6092169259618793,46.41842917401941,0.0,36.225248624035686
1557947996154,15.219450988769532,0.008382568359375,-0.09520202636718751,998.5566711425781,-7.073705176664556,74.4687728881836,1.323388287696421,46.418429560098055,,31.835545336188616
1557947996220,10.682834930419922,-0.21944366455078126,4.14143783569336,998.5566711425781,-7.073705176664556,75.92076873779297,1.2419041197557437,46.41843063807209,43.2470703125,36.632296345328676
1557947996290,5.692212982177734,-3.8601727294921875,5.504353637695313,998.5566711425781,-6.751777081777194,77.55654907226562,1.830820734934985,46.418427194081936,,30.958664534785427
1557947996354,7.422165527343751,-2.5343797302246096,4.321363677978516,998.5566711425781,-6.4887426759434,75.09930419921875,0.19437397912263876,46.41843185628784,,31.763806922432703
1557947996420,9.864786071777344,1.6474740600585938,-0.28919860839843753,998.5566711425781,-7.073705176664556,73.6549301147461,1.7195197063507024,46.41843052534077,0.0,38.00442121336256
1557947996488,7.327412567138672,-2.0567230224609374,-1.00351318359375,998.5566711425781,-7.073705176664556,71.51957702636719,0.8478836838426961,46.418431134619404,,30.515383905153275
1557947996554,7.317084045410157,-2.677482147216797,3.8272412109375002,998.5566711425781,-7.073705176664556,71.51957702636719,0.9724269351379936,46.418429276701616,68.79215494791666,32.65525335219074
1557947996620,7.189100189208984,-3.556753692626953,3.0650262451171875,998.5566711425781,-7.073705176664556,69.26363372802734,0.3084547314213242,46.41842730978769,68.79215494791666,30.178677189635053
1557947996688,10.54527099609375,-2.770738220214844,1.935026092529297,998.5566711425781,-7.073705176664556,68.24666595458984,0.8760506352341795,44.28800665522517,0.0,30.884904701823963
1557947996754,12.69794448852539,-5.0886680603027346,6.0588006591796875,998.5566711425781,-7.073705176664556,66.91033935546875,1.33481525617102,44.288000418429824,0.0,31.628629933219262
1557947996820,7.627388763427735,-1.445543975830078,2.6967919921875003,998.5566711425781,-7.073705176664556,68.2745590209961,1.4587863981427505,44.28799665911088,0.0,34.494783991873646
1557947996887,8.070317687988283,-0.10792556762695313,6.16522933959961,998.5566711425781,-7.073705176664556,70.17671966552734,0.9960123915880442,44.287996609341604,,29.175055095525465
1557947996954,8.577912139892579,-1.0556048583984377,4.06868911743164,998.5566711425781,-6.751777081777194,71.59748840332031,0.4502124811199087,44.28799354653144,0.0,27.535830588929066
1557947997021,9.11828842163086,-0.03323089599609375,1.7501605224609376,998.5398101806641,-7.073705176664556,70.49256134033203,0.7409676182027212,44.28799430240074,0.0,30.301947853567516
1557947997087,7.405101013183594,1.0361453247070314,0.7897576904296876,998.5398101806641,-7.073705176664556,70.49256134033203,0.6529988672458763,44.287990697762716,0.0,29.556877503135055
1557947997154,6.964716796875001,-0.3740721130371094,1.9005976867675782,998.5398101806641,-7.073705176664556,74.68172454833984,0.3836527948920086,42.91289833484716,0.0,25.809249756756195
1557947997220,7.9026663208007815,0.07813751220703126,3.6419265747070315,998.5398101806641,-7.073705176664556,76.03339385986328,0.5146491064328326,42.91289072772364,0.0,34.98861688992884
1557947997289,10.55095916748047,0.2728825378417969,3.0033544921875,998.5398101806641,-7.073705176664556,76.03339385986328,0.7113914558952785,42.912883721154856,0.0,26.074550232146688
1557947997354,11.67616928100586,1.5203883361816406,2.4477099609375,998.5398101806641,-7.073705176664556,74.212890625,0.5822308772616179,42.91287901175561,0.0,32.62451089730429
1557947997420,14.726076965332032,-0.8674461364746094,2.4532484436035156,998.5398101806641,-7.073705176664556,72.74365997314453,1.0178157209012242,42.91287340138304,,28.26722520168992
1557947997487,11.539054412841798,-0.319735107421875,5.126988372802734,998.5398101806641,-7.073705176664556,72.74365997314453,0.8766280823344383,42.91286851463938,0.0,32.57438566859814
1557947997554,5.990093536376953,-3.194506988525391,4.2098455810546875,998.5398101806641,-7.073705176664556,71.70689392089844,1.6922171151875585,42.912866953180284,0.0,24.99687082618404
1557947997620,6.868317260742188,-2.2540127563476564,4.462819519042969,998.5398101806641,-6.751777081777194,71.70689392089844,0.17898557081213726,42.91286996098567,0.0,24.800069429571504
1557947997690,8.719367980957031,0.09819580078125001,0.5843847656250001,998.5398101806641,-7.073705176664556,68.08326721191406,1.2074361005412346,42.9128702441156,0.0,34.79431337197737
1557947997754,7.729775848388672,-1.8435662841796876,-0.6376739501953125,998.5398101806641,-7.073705176664556,64.9206314086914,0.655218677748813,42.493990020175666,0.0,30.03029470553618
1557947997820,8.199648742675782,-2.1788690185546877,4.1499700927734375,998.5398101806641,-7.073705176664556,64.9206314086914,1.076947218944488,42.49398985778614,,41.241127921967845
1557947997887,6.88852523803711,-4.201463012695313,2.705174560546875,998.5398101806641,-6.751777081777194,63.25733184814453,0.6351718194391062,42.49398774706281,78.00997488839286,27.839035792727348
1557947997954,10.871742095947265,-2.668351135253906,2.2552102661132816,998.5398101806641,-6.751777081777194,61.26395034790039,0.9611826295492586,42.493990121232166,0.0,32.70212854896243
1557947998022,9.817035369873047,-5.320236511230469,4.818030853271485,998.5194396972656,-7.073705176664556,59.917232513427734,0.8548336298711053,42.49398587748716,0.0,31.287222843384267
1557947998087,9.97091537475586,-2.421215057373047,4.387077026367188,998.5194396972656,-6.751777081777194,61.66748046875,0.5768676732302362,42.493985074441206,,29.689496809813427
1557947998154,8.617280273437501,0.8457412719726562,6.38751708984375,998.5194396972656,-6.751777081777194,62.70961380004883,1.137088071960361,42.49398697327881,117.80110677083334,31.68202746842631
1557947998220,8.1574365234375,-0.17318984985351563,3.7488043212890627,998.5194396972656,-6.4887426759434,65.76362609863281,0.5676442571946511,42.49398912120359,117.80110677083334,30.74816440645175
1557947998288,7.687413940429688,-0.002245330810546875,2.0899539184570313,998.5194396972656,-6.4887426759434,65.76362609863281,0.573894774933037,42.493985915684625,0.0,29.375178920173468
1557947998354,6.632856903076172,0.9626481628417969,1.0294093322753908,998.5194396972656,-6.751777081777194,65.76362609863281,0.5638258137994581,42.49398709316632,0.0,29.003671286564703
1557947998420,6.824308776855469,-0.006885681152343751,1.6699273681640625,998.5194396972656,-7.073705176664556,67.32283020019531,0.16270512905506265,42.493988024573405,0.0,31.172712956557646
1557947998487,9.355844421386719,0.07349716186523438,2.574795684814453,998.5194396972656,-7.073705176664556,70.31634521484375,0.6723288589537797,42.493990191185524,0.0,32.9622628726116
1557947998554,9.610914001464844,1.3483959960937502,2.3105950927734376,998.5194396972656,-7.073705176664556,70.31634521484375,0.3776259389475359,42.493989001814235,,33.29397879361043
1557947998620,9.653874664306642,1.4688954162597656,1.7066011047363283,998.5194396972656,-7.073705176664556,70.31634521484375,0.19741853958977604,42.49398622878317,441.5087890625,31.473671077937865
1557947998687,12.039463806152344,0.5498066711425782,1.799707489013672,998.5194396972656,-7.073705176664556,65.16929626464844,0.645784263923465,42.493987702664434,441.5087890625,35.69490954348783
1557947998754,15.138319702148438,3.3727862548828127,1.0904823303222657,998.5194396972656,-7.073705176664556,61.664161682128906,1.150133361572585,42.493987613952946,258.7890625,35.47897717563097
1557947998820,13.038486328125,-1.876348114013672,4.970563659667969,998.5194396972656,-7.073705176664556,63.91497039794922,1.4281791153194083,42.49398867436608,,31.702617153949575
1557947998887,5.462141418457032,-3.5085539245605473,3.705843658447266,998.5194396972656,-7.073705176664556,63.91497039794922,2.0965567587065705,42.49398801281265,0.0,32.0112389720738
1557947998954,7.1614077758789065,-1.8265017700195314,4.813091125488281,998.5194396972656,-6.751777081777194,61.141990661621094,0.3253196293049148,42.49399131817026,0.0,31.61966616364075
1557947999023,8.709937591552734,0.5860313415527344,1.086291046142578,998.4886932373047,-7.073705176664556,58.262413024902344,1.1460953919232473,42.493987633684554,0.0,57.30144088330999
1557947999087,8.166268157958985,-1.8823356628417969,-1.0841954040527344,998.4886932373047,-7.073705176664556,55.70930480957031,0.8861995855337392,42.49398963034201,,48.38836502308961
1557947999154,7.798033905029297,-1.833237762451172,1.6377442932128907,998.4886932373047,-7.073705176664556,60.723514556884766,0.5114052610458449,34.10384716795439,75.9326171875,42.80122896302308
1557947999220,6.750811614990234,-4.132007446289062,3.618724822998047,998.4886932373047,-7.073705176664556,60.723514556884766,0.9080176203446326,34.10384514200591,75.9326171875,36.060587494103146
1557947999289,10.58254348754883,-3.3305740356445312,2.175875244140625,998.4886932373047,-7.073705176664556,59.412574768066406,0.5883680498318892,34.103845856853965,54.2236328125,38.17631467190515
1557947999354,11.931538238525391,-4.819677429199219,3.2419583129882814,998.4886932373047,-7.073705176664556,58.18046951293945,0.8863548128695461,34.10384452842286,,44.60356515861847
1557947999420,10.54856414794922,-3.073708190917969,4.40968002319336,998.4886932373047,-6.751777081777194,59.54561996459961,0.5230207791652431,34.103846853664315,,40.7983219967722
1557947999487,9.904453582763672,-0.417930908203125,2.440375213623047,998.4886932373047,-6.4887426759434,61.12091827392578,0.8797799561036431,34.103847333310036,93.20166015625,32.49198357391113
1557947999554,6.052513732910157,-3.1054421997070314,7.37426513671875,998.4886932373047,-6.266350254606952,68.28311920166016,1.5934938372573317,34.10384587460966,90.82796223958334,35.659658174466664
1557947999620,5.196443939208985,-2.8762687683105472,3.4694851684570316,998.4886932373047,-6.4887426759434,75.9530258178711,0.8382679082930917,34.10384754135607,106.34171549479166,34.74361976032631
1557947999688,11.151510314941406,0.2650987243652344,2.6994863891601564,998.4886932373047,-6.073705176664556,75.9530258178711,1.6150200532592918,34.10384783463531,106.34171549479166,44.9752397570354
1557947999753,7.215595092773438,0.32871643066406253,0.8583151245117188,998.4886932373047,-5.266350254606952,90.99159240722656,0.8710056018524934,30.582858048644006,,37.37113094305961
1557947999820,7.395371246337891,-0.7559280395507812,1.6699273681640625,998.4886932373047,-5.266350254606952,97.1323471069336,0.2559621947220555,30.582854917103358,69.499267578125,37.47722462035509
1557947999887,8.028554534912109,-1.0575508117675783,2.052382049560547,998.4886932373047,-5.073705176664556,98.72917938232422,0.2149903784652034,33.75346874480053,69.499267578125,39.82271233039568
1557947999954,9.184001770019531,0.17468673706054688,-0.025596771240234375,998.4886932373047,-6.751777081777194,101.89794921875,0.6486133349363759,33.75346851117292,48.32327706473214,42.38472656948356
1557948000022,10.050998840332031,1.2156221008300783,-1.1660751342773439,998.4519958496094,-7.073705176664556,101.89794921875,0.5792443837285614,33.75346854109955,,32.16165902285993
1557948000088,11.538006591796876,-0.12064910888671876,0.8045768737792969,998.4519958496094,-7.073705176664556,103.58641052246094,0.6317783063109075,33.753467653737566,,38.00166990201364
1557948000154,12.473860473632813,1.1289523315429688,-2.659519500732422,998.4519958496094,-7.073705176664556,110.13622283935547,0.8810299458243609,33.75347028535313,230.7080078125,35.976951859255124
1557948000220,11.367062072753907,0.6737489318847657,2.7693910217285156,998.4519958496094,-7.073705176664556,110.13622283935547,1.1816121106150042,33.753470032296654,,37.000110623221126
1557948000289,8.255332946777344,-1.106349334716797,1.7366885375976564,998.4519958496094,-7.073705176664556,108.39399719238281,0.9443245549174298,33.753468892527096,53.88211495535714,45.11174548788926
1557948000354,7.211104431152344,-5.251978454589844,1.044228515625,998.4519958496094,-7.073705176664556,108.39399719238281,1.1898186172792111,33.75346927138958,53.88211495535714,40.32739605209493
1557948000420,12.11490692138672,-2.1035755920410155,-0.32811767578125,998.4519958496094,-7.073705176664556,102.40309143066406,1.2562308961178013,34.23553396637984,28.6083984375,33.10480891462675
1557948000487,6.764433288574219,-4.618795166015626,0.9277706909179688,998.4519958496094,-7.073705176664556,97.1790542602539,1.1995841209205111,34.23553225779291,34.7216796875,40.05823753029028
1557948000554,7.338489532470703,-4.8791038513183596,0.2652484130859375,998.4519958496094,-7.073705176664556,89.73933410644531,0.25473364758837685,34.235527793913384,43.818359375,38.72622379025288
1557948000620,10.031539306640626,-5.552553405761719,0.20058288574218752,998.4519958496094,-7.073705176664556,85.24969482421875,0.6799082846671074,34.235524284363,43.818359375,28.887409606828925
1557948000688,9.398805084228517,-6.318360900878907,1.785337371826172,998.4519958496094,-4.614273558027259,84.05985260009766,0.4568885017423199,34.235519823580425,0.0,31.65541076722373
1557948000754,5.872887268066407,-7.775281219482422,1.5358062744140626,998.4519958496094,-5.373265458523464,82.07357025146484,0.9788868272058385,34.23551338594807,0.0,31.40193678578631
1557948000820,8.227191467285156,-7.634873199462891,0.44562332153320316,998.4519958496094,-7.073705176664556,82.07357025146484,0.45881235251257835,34.235509349029115,0.0,39.40117866747718
1557948000887,5.634882202148438,-8.5214794921875,5.2576666259765625,998.4519958496094,-7.073705176664556,79.25086975097656,1.2881097825318248,34.23550239161829,,25.171958979499745
1557948000954,4.045637054443359,-5.550457763671876,6.214776306152344,998.4519958496094,-4.4887426759434,78.16229248046875,1.0139222293619006,34.235498023963,0.0,26.803355134145633
1557948001023,3.101400604248047,-5.890999603271485,6.667285308837891,998.41552734375,-2.9444221597195894,78.16229248046875,0.45151515068140347,34.23549659018333,0.0,25.09202522331103
1557948001088,4.1324565124511725,-6.8671197509765625,7.502248992919922,998.41552734375,-2.3872046494813377,76.78306579589844,0.38681776270005336,36.784902696365094,0.0,24.871383754771866
1557948001154,5.550158386230469,-7.292535095214844,7.713759155273438,998.41552734375,-2.08502048989239,93.7762680053711,0.44421597148416314,36.78490221094172,0.0,25.69373909615046
1557948001220,5.744753723144531,-6.365063781738281,7.063511352539063,998.41552734375,-1.9453592789736431,109.02381896972656,0.27559545450475464,36.78490015663216,0.0,25.563025007672874
1557948001292,5.649551696777344,-4.303999786376953,7.268285522460938,998.41552734375,-1.154828979557398,128.9447021484375,0.563549296122295,36.78489539299191,0.0,24.69822015978163
1557948001354,8.096213836669921,-4.8877857971191405,6.225853271484375,998.41552734375,-0.945359278973643,149.23602294921875,0.6661524542847076,36.78489118534214,0.0,22.405492482826
1557948001421,6.721472625732423,-3.6074981689453125,6.702911224365235,998.41552734375,0.2786465945804269,176.19842529296875,0.37517092436483984,36.784888280118565,0.0,26.180480967120925
1557948001487,3.9065762329101563,-1.2536430358886719,6.278543701171875,998.41552734375,0.8810883240795543,216.5073699951172,1.0095894634675864,36.784884731397,0.0,27.730546933642625
1557948001554,3.5649865722656253,-0.027991790771484375,8.203241271972656,998.41552734375,1.226878660905381,230.03472900390625,0.7132005280231083,37.136870826798,0.0,29.35003151453655
1557948001620,3.39374267578125,1.1543994140625,8.611741790771484,998.41552734375,1.521136828272066,243.83001708984375,0.4802572520359492,36.81206915583889,0.0,30.025979807199086
1557948001687,2.9535081481933596,0.9198371887207032,9.057065734863281,998.41552734375,1.755717801469133,258.0115051269531,0.21999671349721775,36.81206888965842,0.0,27.109631189952758
1557948001754,1.5214361572265627,0.6200106811523438,9.436975708007813,998.41552734375,1.780693462134343,279.40533447265625,0.4203488712521412,36.812068974648724,0.0,27.267272090265724
1557948001820,2.7538233947753907,0.3209326171875,9.870025177001954,998.41552734375,1.7436080617164185,291.167236328125,0.2694097561089893,36.812070601033454,0.0,24.29752280002408
1557948001888,2.0850141906738284,0.18830841064453127,9.143436126708984,998.41552734375,1.4988069006453517,300.5980224609375,0.19392940697339325,36.81207027647368,0.0,22.87801729930226
1557948001954,1.787882080078125,0.7649093627929688,8.252638549804688,998.41552734375,1.4148664183301993,309.5603942871094,0.3078032181723134,36.81206235971737,0.0,22.09515014542631
1557948002022,1.7582437133789064,1.110091552734375,8.399632873535158,998.3837127685547,1.2824948199502353,320.86700439453125,0.1265297394633763,36.81205794996745,0.0,20.718820073061256
1557948002087,1.317111053466797,2.176024932861328,9.436975708007813,998.3837127685547,1.2140680833310504,328.38958740234375,0.4067632933995594,36.81205220831454,0.0,34.4216608578472
1557948002154,1.437161407470703,2.318229217529297,10.711425476074218,998.3837127685547,1.1476535456049892,337.4403076171875,0.39711674610277103,36.812050802011164,0.0,21.613680022349747
1557948002221,1.9125727844238283,2.139650573730469,12.481644287109376,998.3837127685547,0.9852230807096007,341.73223876953125,0.5512400861422072,36.81204819272356,0.0,25.865873046717546
1557948002288,0.21585113525390626,1.1268566894531251,12.789104919433594,998.3837127685547,0.8439771552738493,345.51263427734375,0.5163044206514934,36.812044815750184,0.0,24.424797690644485
1557948002354,0.8882528686523438,0.6186634826660157,14.06879379272461,998.3837127685547,0.7146941383288828,350.0018310546875,0.4171327309827779,36.81203718090279,0.0,21.931245983544617
1557948002420,1.1190728759765625,0.45954437255859376,12.46562759399414,998.3837127685547,0.7056489987258758,351.16070556640625,0.32242012288438465,36.812035323348354,0.0,23.384564936046047
1557948002487,1.4932946777343752,0.41344024658203127,10.907218322753907,998.3837127685547,0.6781682623037688,351.16070556640625,0.4794129043991385,36.81203083442813,0.0,28.567288903828825
1557948002554,1.562600555419922,0.5538482666015625,8.323291625976562,998.3837127685547,0.6119345639036822,351.16070556640625,0.76401816590794,36.8120301825333,0.0,23.59835482339888
1557948002620,2.1794677734375,0.5324427795410156,7.718549194335938,998.3837127685547,0.6174142312246728,349.7505798339844,0.37973381219002617,36.812028745267334,0.0,22.55272505103306
1557948002688,2.489323425292969,0.5092410278320313,7.385641479492188,998.3837127685547,0.6404080725582837,349.7505798339844,0.206405192154532,40.445567761848196,0.0,20.21189299069938
1557948002754,2.9437783813476566,0.2571652221679688,8.245303802490234,998.3837127685547,0.622290035853619,349.7505798339844,0.23351886317916798,40.44556844369598,0.0,22.71841606536499
1557948002821,3.4123040771484376,0.295784912109375,9.972262573242189,998.3837127685547,0.5609684237348248,349.7505798339844,0.4989942042382119,40.44557051085348,0.0,32.586372827240766
1557948002887,4.221670989990234,0.24743545532226563,10.029593353271485,998.3837127685547,0.5794084398287668,352.0908203125,0.27527035182259246,40.44556798093251,,32.58397804095509
1557948002953,3.6112403869628906,1.0121951293945313,10.214009857177734,998.3837127685547,0.5157814180445389,353.4676818847656,0.22384087542372644,40.44556979849404,,30.941215958405614
1557948003022,4.381688232421875,1.2365785217285157,8.71113510131836,998.3600616455078,0.5265807514745522,357.1531982421875,0.40742304138054203,40.44556849457013,0.0,28.779469516291883
1557948003087,3.8240977478027345,1.5840060424804687,8.39409439086914,998.3600616455078,0.4636693855252486,1.2608642578125,0.22449283423597738,40.44557010951784,0.0,26.053050461411097
1557948003154,3.5759138488769535,1.9205062866210938,8.324189758300781,998.3600616455078,0.44085391873829766,6.136206150054932,0.15361914065228938,40.445569574408694,0.0,25.55094448578319
1557948003220,3.1487022399902345,1.9760408020019533,8.352630615234375,998.3600616455078,0.4186638191825849,9.815149307250977,0.13528309108768635,40.445568205193965,0.0,25.19827993775719
1557948003287,2.856958923339844,1.9107765197753908,8.870703277587891,998.3600616455078,0.3970712021264348,13.476115226745605,0.16535023734380266,40.44556915552717,0.0,23.404441148401183
1557948003353,1.7022601318359376,1.9952009582519532,9.709409179687501,998.3600616455078,0.37879844095040066,15.412609100341797,0.39739728841429184,42.59421219540807,0.0,24.814426285023053
1557948003421,2.418820037841797,1.6790583801269532,11.7882861328125,998.3600616455078,0.3696377917962928,19.411170959472656,0.5933847842015841,42.59421072376336,0.0,28.739015978644616
1557948003487,1.0789562988281252,2.142644348144531,11.783645782470703,998.3600616455078,0.3469623538283958,20.646156311035156,0.35523775132942725,42.59421065971683,0.0,27.589118923979736
1557948003554,1.1317964172363282,0.8406518554687501,12.276870117187501,998.3600616455078,0.3524374838945467,20.646156311035156,0.34668732904575916,42.59421208133729,,30.20775488193558
1557948003621,2.05013671875,2.0046313476562503,9.811796264648438,998.3600616455078,0.35504470012625444,17.953327178955078,0.6514714334439737,42.59421186731619,0.0,24.45604203273598
1557948003687,1.4168037414550783,1.038240966796875,9.004974060058593,998.3600616455078,0.32827779056346895,16.09596061706543,0.4072170860293678,42.59421163561019,0.0,26.30427875025024
1557948003754,1.3835728454589844,1.4745835876464843,8.028404846191407,998.3600616455078,0.2970734780360364,12.6583251953125,0.33816050960819355,42.594210516353044,0.0,26.21176281775035
1557948003820,1.1594888305664064,1.2951068115234377,7.954757995605469,998.3600616455078,0.2602726196330978,10.803492546081543,0.12350703465451979,42.5942123340734,0.0,22.30448921378274
1557948003889,1.1220666503906251,1.4971865844726564,7.847131805419922,998.3600616455078,0.22078524775125094,8.662200927734375,0.07237662423694863,42.59421034021314,0.0,25.440680443502757
1557948003954,1.5684384155273439,1.0871891784667969,9.52589080810547,998.3600616455078,0.1812843234862694,7.284920692443848,0.42993104955773764,42.594213356403195,0.0,22.04119982655925
1557948004022,2.11480224609375,0.12409194946289064,11.406280517578125,998.3428192138672,0.16989392300143835,7.284920692443848,0.6503696268132038,42.594209481207386,0.0,32.47236549506764
1557948004087,2.7328669738769533,0.0652642822265625,10.615025939941408,998.3428192138672,0.19638133545254416,7.284920692443848,0.21824572143488002,42.594211015870236,0.0,28.247764624755458
1557948004154,1.8574873352050782,0.591420135498047,11.720477142333985,998.3428192138672,0.21092381392614343,7.284920692443848,0.3321139341769671,42.59421007479389,0.0,27.693773260761386
1557948004220,2.8735743713378907,1.1413764953613281,9.616901550292969,998.3428192138672,0.2981965268331322,8.87822151184082,0.5328108876489493,42.594211458672255,0.0,25.301996982030822
1557948004289,1.871558074951172,1.4036311340332033,9.12592254638672,998.3428192138672,0.2720836865140009,10.110033988952637,0.32715933559905847,43.15278314141777,0.0,25.37819095073274
1557948004354,1.8145266723632814,2.0887564086914066,7.902366943359375,998.3428192138672,0.2720836865140009,11.603646278381348,0.4203955581666078,43.15278024027965,0.0,25.2244423350632
1557948004421,1.5164964294433594,1.8934126281738282,8.837921447753907,998.3428192138672,0.2521841290762961,13.716532707214355,0.16881480686037323,43.15277412928982,0.0,22.96665190261531
1557948004487,1.2843292236328125,2.079475708007813,8.497678985595703,998.3428192138672,0.23876361331397436,15.069254875183105,0.10547903840214723,43.15276966244997,0.0,23.07496037913213
1557948004554,0.6030958557128907,1.7275575256347657,10.367740173339845,998.3428192138672,0.2046557589937101,16.563425064086914,0.4992718570111046,43.15276371464771,0.0,23.61727836017593
1557948004621,0.74964111328125,1.8694624328613283,11.686048736572266,998.3428192138672,0.19773634505391974,17.655033111572266,0.4438061293627799,43.15275555829506,0.0,36.10766594773271
1557948004688,0.475411376953125,2.338886260986328,11.7403857421875,998.3428192138672,0.16263254409800376,16.51441192626953,0.1879292517523799,43.15275477972069,,30.472748673841792
1557948004754,-0.25926086425781253,0.6111790466308594,11.775562591552735,998.3428192138672,0.18379715409604583,15.112022399902344,0.45104827098628114,43.15274763291501,0.0,27.87460474518415
1557948004821,-0.11870315551757814,2.053729248046875,11.117530975341797,998.3428192138672,0.1411528166875523,12.837563514709473,0.3030525547606438,43.1527417466972,0.0,28.247764624755458
1557948004887,0.7399113464355469,1.7307009887695313,9.298513641357422,998.3428192138672,0.19078358441215276,8.788335800170898,0.5367804484032227,43.1527390834052,0.0,26.919651027673606
1557948004954,0.005239105224609375,1.4843133544921876,8.05010971069336,998.3428192138672,0.11934844636920368,6.121841907501221,0.459409932894323,43.152733347923125,0.0,24.899584794248348
1557948005022,0.5733078002929688,1.0835966491699218,7.01546127319336,998.3294677734375,0.1266532469924371,4.751964569091797,0.40075142835716904,43.15273649293086,0.0,24.84299839346786
1557948005088,-0.1197509765625,1.1859837341308594,7.033423919677735,998.3294677734375,0.05953905113390009,2.1755683422088623,0.17014590533833038,39.237618327545114,0.0,22.71841606536499
1557948005154,0.014220428466796876,1.1491603088378908,6.862928466796875,998.3294677734375,-0.026969942120774686,0.32257235050201416,0.06532510841416142,39.23761052439044,0.0,22.174839442139064
1557948005220,0.5716612243652344,0.985550537109375,9.36737045288086,998.3294677734375,-0.013854754452561305,358.6523742675781,0.6270486544382167,39.237607771845106,0.0,24.638929889859075
1557948005288,1.4778767395019532,0.8644523620605469,12.39228012084961,998.3294677734375,0.1415960347846209,357.5318908691406,0.946415835065833,39.23760298093087,0.0,29.618954736678504
1557948005354,2.5933570861816406,0.8816665649414063,12.655133514404298,998.3294677734375,0.2618902685023326,357.5318908691406,0.451970470017439,39.23759669658729,0.0,25.465426634781313
1557948005421,2.612816619873047,0.9086105346679688,14.008319549560548,998.3294677734375,0.38966680478263405,357.5318908691406,0.42147428692060995,39.23759691228054,0.0,24.871383754771866
1557948005487,2.3674768066406253,1.725461883544922,9.087602233886718,998.3294677734375,0.5161574311261777,358.9996032714844,1.1465312924939395,39.23759431339873,0.0,23.443922736851107
1557948005553,1.5238311767578125,1.479972381591797,8.612490234375,998.3294677734375,0.5238401159124753,1.7608591318130493,0.4574173886505031,39.23758990338598,0.0,25.289167002776548
1557948005620,1.0710227966308594,1.7121395874023437,7.828420715332031,998.3294677734375,0.5347086323579525,3.65543532371521,0.34516663704389333,39.23759058279735,0.0,27.21810615212547
1557948005688,1.5501763916015625,1.6420852661132814,8.083041229248048,998.3294677734375,0.5380106468364622,4.9834771156311035,0.07847770861979761,39.237593359549486,0.0,26.25312450961674
1557948005754,1.3045372009277345,1.717079315185547,8.389304351806642,998.3294677734375,0.5071483520704396,7.515417575836182,0.0869046138181089,39.23759171629949,0.0,23.820170425748685
1557948005820,1.5200889587402344,1.806742858886719,9.758806457519531,998.3294677734375,0.5321446145421708,10.892985343933105,0.3644595380424299,39.23759084114344,0.0,34.64489547433971
1557948005887,0.7361691284179688,1.4593153381347657,11.201356658935547,998.3294677734375,0.5434099128146928,13.873004913330078,0.4939288380595159,39.237590561629816,,36.02927712859189
1557948005953,-0.5599855041503906,1.5630496215820313,11.145822143554689,998.3294677734375,0.507427026021642,15.728973388671875,0.3833279204724219,39.23758952775224,29.6728515625,32.64581729238078
1557948006021,-0.6667135620117188,1.3825250244140626,11.392060089111329,998.3142852783203,0.41330484865709183,14.082990646362305,0.1535297953038541,39.237590228886695,29.6728515625,27.993405494535818
1557948006089,0.14669494628906252,1.7549505615234375,12.455299072265626,998.3142852783203,0.6449305497715768,335.5971374511719,0.34562370416611876,39.23759176589123,0.0,29.132839017604187
1557948006154,0.3338058471679688,1.8726058959960938,11.99710189819336,998.3142852783203,0.6803860875535874,335.5971374511719,0.11157546252959671,35.45775228204079,0.0,25.932860670204573
1557948006221,0.6605763244628906,1.8874250793457032,10.51024383544922,998.3142852783203,0.7204207493558401,333.7492370605469,0.3966731056546054,35.45774888961571,0.0,29.642596301968492
1557948006288,0.48873367309570315,1.9484980773925782,8.9046826171875,998.3142852783203,0.5945667190925835,331.2391052246094,0.49765039807651174,35.457747340286716,0.0,24.683473304121573
1557948006354,0.5849835205078125,1.5287709045410156,7.852819976806641,998.3142852783203,0.5148395266218496,329.4031982421875,0.4004343421381022,35.457737910946925,0.0,23.22219294733919
1557948006421,0.36539016723632817,1.8107844543457032,7.006330261230469,998.3142852783203,0.3315323132587898,326.8392333984375,0.3157348404294383,35.457733442428335,0.0,20.755469613925307
1557948006488,-0.1968406677246094,2.4158262634277343,8.047565002441406,998.3142852783203,0.23148513640845983,324.58282470703125,0.28884868516924184,35.45772844845077,0.0,21.84691430817599
1557948006553,0.7933502197265625,3.4651441955566407,10.234666900634766,998.3142852783203,0.18833052191744215,321.0916442871094,0.6976736744379212,35.45772449177042,0.0,22.32996110392154
1557948006621,1.3347743225097657,2.8695327758789064,11.05825424194336,998.3142852783203,0.24626835420892285,318.897216796875,0.40733241387669944,35.45772082222384,,33.71806458507416
1557948006688,2.182910614013672,2.2568568420410156,10.179431762695312,998.3142852783203,0.3811572737119927,318.897216796875,0.32619733528935047,35.45771311688398,214.4263916015625,30.692980121155294
1557948006754,1.6533119201660158,1.4950909423828125,11.769724731445313,998.3142852783203,0.6245628727968543,316.97393798828125,0.4475440587592737,35.45770917460667,214.4263916015625,27.958800173440753
1557948006821,1.9475999450683594,1.893113250732422,9.025331726074219,998.3142852783203,0.751537914288615,322.0915832519531,0.5987362768734148,35.45770851818697,0.0,24.487063199050798
1557948006887,1.4081217956542968,2.1112097167968753,8.341104583740234,998.3142852783203,0.698827732869862,327.1343688964844,0.3477006329142608,35.45770388342046,0.0,25.45307116465824
1557948006953,0.37601806640625,3.0033544921875,6.232738952636719,998.3142852783203,0.617491296209114,330.84320068359375,0.7132066833073705,35.45770319871633,0.0,26.848453616444125
1557948007023,0.7590715026855469,1.9538868713378907,6.549330596923828,998.2877349853516,0.5449017314403047,332.32952880859375,0.21654291744071563,35.457705994122264,0.0,28.90979596989689
1557948007087,-0.17453704833984376,2.7643016052246097,7.604336700439453,998.2877349853516,0.5840015511292452,335.13043212890625,0.3676292586254938,35.4577064297067,0.0,29.831750720378132
1557948007154,0.2847079467773438,3.3949401855468753,8.375682678222656,998.2877349853516,0.536952978324814,337.4700927734375,0.32599231870043127,35.45770413458647,0.0,27.17670503002262
1557948007220,0.14280303955078125,3.4335598754882812,10.978619842529298,998.2877349853516,0.5449017314403047,337.4700927734375,0.7169976368336975,35.457703794744006,0.0,31.068705444786538
1557948007288,-0.496966552734375,3.2220497131347656,11.406579895019531,998.2877349853516,0.5840015511292452,335.87689208984375,0.332108649590172,35.45770234626493,,27.97959643737196
1557948007353,-0.6634204101562501,1.5262261962890626,12.565170593261719,998.2877349853516,0.5840015511292452,333.5166015625,0.5702264145310708,35.457703616959435,0.0,24.78566495593843
1557948007420,-0.20118164062500002,2.0951930236816407,10.830877075195312,998.2877349853516,0.8825971421859838,331.91876220703125,0.35777665249521806,37.12072978579217,0.0,24.84299839346786
1557948007488,0.5689668273925782,3.0144314575195312,10.075248413085937,998.2877349853516,0.7509325492044029,334.2069091796875,0.4231037019858451,37.120729404794545,0.0,26.94605198933569
1557948007554,0.3011737060546875,2.256258087158203,8.54108871459961,998.2877349853516,0.866036918893095,332.7861633300781,0.47070780187449546,37.12072366879067,0.0,26.344772701607315
1557948007621,-0.3373983764648438,0.8656498718261719,8.534652099609376,998.2877349853516,0.9252611242685412,330.626220703125,0.4291663536614356,37.12071812675101,0.0,27.944880466591698
1557948007689,-1.0750643920898437,1.1320957946777344,6.7828450012207036,998.2877349853516,0.966194756634298,329.5169677734375,0.518869073005342,37.120711398328886,0.0,21.903316981702915
1557948007753,-1.3382171630859376,1.9449055480957032,8.416098632812501,998.2877349853516,0.6377417501450938,321.25213623046875,0.3720484519965337,37.12070869504838,0.0,25.327543789924974
1557948007820,-0.21525238037109376,1.8217117309570314,9.915380859375,998.2877349853516,0.9284442858145902,317.47283935546875,0.5132355994130383,37.120707785716235,0.0,26.972293427597176
1557948007888,-0.288599853515625,2.113005981445313,10.127040710449219,998.2877349853516,0.8860090194941934,317.47283935546875,0.18739823109927664,37.894534771660034,0.0,30.10723865391773
1557948007953,3.0232630920410157,1.5117063903808594,10.957513732910156,998.2877349853516,0.8788135180899896,313.5351867675781,0.8848885204985038,37.89453260288571,0.0,45.09605704611556
1557948008022,-0.3429368591308594,1.2313394165039062,12.199481048583985,998.2501220703125,0.6779008241639932,307.21173095703125,0.7407057581983677,37.894531068544985,,29.24795995797912
1557948008087,-1.1605366516113282,0.19429595947265627,11.291618957519532,998.2501220703125,0.8274143655833454,305.8648376464844,0.4800046068718448,37.89452310162978,0.0,25.289167002776548
1557948008154,1.7820442199707032,-1.2320878601074219,11.850706329345703,998.2501220703125,0.8123861563510137,305.8648376464844,0.43327787579661714,37.89452329086327,0.0,48.91052159414138
1557948008220,1.2904664611816408,-0.8008346557617188,10.769205322265625,998.2501220703125,0.9696669485411032,305.8648376464844,0.3621840005583251,37.8945243261082,,31.335389083702175
1557948008289,1.4762301635742188,-0.6312373352050782,8.841813354492189,998.2501220703125,1.0163170418399246,308.3658447265625,0.5572173035764335,37.894523333912154,0.0,27.299742856995554
1557948008354,0.9210346984863281,0.24099884033203126,7.994575195312501,998.2501220703125,1.144419708350969,313.7560119628906,0.4163924316407586,38.25562275227683,0.0,27.596678446896306
1557948008421,1.1358380126953125,0.8851094055175782,8.279732208251954,998.2501220703125,1.0485697734018224,314.658203125,0.21295718590261084,38.25561936958319,0.0,26.263403673750425
1557948008488,1.4976356506347657,0.5391787719726563,8.640032958984376,998.2501220703125,0.9358082890367801,316.1129150390625,0.13391712517654494,38.255614488263504,0.0,24.099331233312945
1557948008554,0.5529501342773437,1.605561218261719,8.87205047607422,998.2501220703125,0.9044441181274451,317.8318786621094,0.343373406229629,38.25561240569536,0.0,25.03790683057181
1557948008621,1.8522482299804688,1.7149836730957033,8.396339721679688,998.2501220703125,0.8964953650119541,325.3570251464844,0.34450227291202384,38.25560763138829,0.0,27.226339225338123
1557948008688,1.1897259521484376,1.8134788513183595,8.080197143554688,998.2501220703125,0.8885025742584236,327.02001953125,0.3358056656274942,38.25560512571234,0.0,33.328422669943514
1557948008754,0.39787261962890624,1.121018829345703,11.527977447509766,998.2501220703125,0.7629716921745647,333.7271423339844,0.8209981262208635,38.25559959327147,,53.28450960519263
1557948008821,0.7448510742187501,1.864373016357422,9.099277954101563,998.2501220703125,0.6727738832029863,334.83544921875,0.44167342504010265,38.25559741271016,247.6318359375,28.06179973983887
1557948008887,0.2812651062011719,-0.19669097900390625,12.353361053466797,998.2501220703125,0.5963218227651133,336.12420654296875,0.8621315872009333,38.25558929020883,247.6318359375,28.88179493918325
1557948008954,1.0972183227539063,0.4435276794433594,10.602452087402344,998.2501220703125,0.5008091472571343,336.12420654296875,0.31518810574141254,38.25558656010776,0.0,27.641761323903307
1557948009022,0.27452911376953126,-0.6632707214355469,10.081685028076173,998.2147216796875,0.44159922796647116,336.12420654296875,0.42835222976086984,38.255582333164,0.0,27.101173651118163
1557948009088,1.5164964294433594,-1.0903326416015626,10.075697479248047,998.2147216796875,0.5520767837330083,334.7573547363281,0.2979283833796643,38.25558090961852,0.0,27.916906490201182
1557948009154,1.6750167846679689,-1.4510824584960937,10.213860168457032,998.2147216796875,0.6083489067807076,341.8060607910156,0.1615672598734337,38.25557586097743,0.0,26.483600109809316
1557948009221,1.3736933898925783,-0.06840774536132813,8.777447204589844,998.2147216796875,0.5363397179368806,348.3147277832031,0.4766917730485895,38.25557229865374,0.0,23.443922736851107
1557948009288,1.06578369140625,-0.06271957397460938,9.460925903320312,998.2147216796875,0.4579936662171396,355.59197998046875,0.14562205566772538,38.52863024218324,0.0,24.232458739368077
1557948009353,1.011895751953125,0.8622070312500001,10.707234191894532,998.2147216796875,0.3747965620251214,0.300445556640625,0.41808845818069856,38.52862198072775,0.0,26.13841821876069
1557948009420,0.8725355529785157,0.6474037170410156,10.224188690185548,998.2147216796875,0.2634389982661125,8.448582649230957,0.058499388971134415,38.52861842912599,0.0,29.59994838328416
1557948009487,-0.21749771118164063,0.48094985961914066,10.427316284179687,998.2147216796875,0.18242658181650506,18.889074325561523,0.2891408480731646,38.52861264402181,0.0,25.965970956264602
1557948009554,-0.3465293884277344,0.007933502197265626,10.179132385253906,998.2147216796875,0.047402071969487904,31.99284553527832,0.17237700358728614,38.52861197934801,0.0,24.471580313422194
1557948009620,0.16600479125976564,-0.35176849365234375,11.184890899658203,998.2147216796875,0.010063682045884585,39.51813888549805,0.28676754861414383,38.528607249174584,0.0,23.636119798921445
1557948009689,0.33679962158203125,0.7834707641601563,10.199040985107422,998.2147216796875,-0.08550221720863208,46.06230163574219,0.32209117594811276,38.52860558350472,0.0,24.857214264815802
1557948009754,0.8521778869628907,0.9717791748046876,10.326875152587892,998.2147216796875,-0.16323237849078795,56.609642028808594,0.18357296053465288,38.528598269773724,0.0,26.522463410033232
1557948009821,0.738713836669922,2.4544459533691407,9.002579040527344,998.2147216796875,-0.21329970626443584,62.998573303222656,0.5203355002224141,38.52858990680292,0.0,27.33999286538387
1557948009888,0.7589218139648438,3.1942076110839843,9.582323455810547,998.2147216796875,-0.23909020742130138,71.660400390625,0.2911112002947339,38.52858622048968,0.0,25.809249756756195
1557948009954,-0.6180647277832032,2.8014244079589847,9.660311279296875,998.2147216796875,-0.2680127159591999,78.27972412109375,0.34530356277045965,38.52858054193102,0.0,25.575072019056577
1557948010022,0.6562353515625,2.853665771484375,8.409063262939453,998.184814453125,-0.36747667132120254,81.9415283203125,0.38313297950349245,38.52857877629471,0.0,27.058637122839194
1557948010087,-0.0028440856933593752,1.5355068969726564,9.359436950683595,998.184814453125,-0.44298952196776303,85.04754638671875,0.380807524742484,38.5285715026096,0.0,25.514499979728754
1557948010154,-0.7929011535644531,2.3796015930175782,9.277108154296876,998.184814453125,-0.48246380503277436,86.68435668945312,0.2854111281738332,38.528567516692625,0.0,29.670797341444974
1557948010220,0.06032455444335938,0.7765850830078126,13.003908233642578,998.184814453125,-0.49647986846712067,89.38397216796875,0.9496408681393653,38.52856609530147,0.0,29.32473764677153
1557948010288,-1.3031900024414063,1.8227595520019533,10.494526519775391,998.184814453125,-0.5265762932132544,89.38397216796875,0.538022269374218,38.528562036097036,0.0,27.007037171450193
1557948010354,0.5269042968750001,-1.0615924072265626,13.31960174560547,998.184814453125,-0.519343111139492,90.98291015625,0.9851942760405173,38.52855694888277,0.0,28.813846567705728
1557948010420,-1.2175680541992189,0.6715036010742188,8.899892578125,998.184814453125,-0.6073455554787354,89.44532775878906,1.046812285005993,38.528558921402755,0.0,27.90988475088816
1557948010488,-0.7319778442382813,-0.20148101806640625,9.25480453491211,998.184814453125,-0.6150243202348727,89.44532775878906,0.2167131353178078,38.52855771812951,0.0,27.543483357110187
1557948010554,-0.5376818847656251,-0.4093986511230469,8.29440170288086,998.184814453125,-0.656493204807823,90.5015640258789,0.31435259421167644,38.52855822183263,0.0,24.771212547196626
1557948010620,-0.2992277526855469,0.83586181640625,7.951165466308594,998.184814453125,-0.6327176617920083,89.48502349853516,0.3660500776231963,38.528557249630104,0.0,24.440447959180762
1557948010686,0.22094055175781252,-0.62031005859375,8.459059295654297,998.184814453125,-0.6266260153408085,86.64466094970703,0.3317747843963275,38.528558912397706,0.0,28.247764624755458
1557948010754,-0.4977149963378906,1.2337344360351563,9.044192504882814,998.184814453125,-0.6400695135433047,84.14054107666016,0.4503988234842005,38.528555833084894,0.0,25.670263661590603
1557948010821,-1.289718017578125,0.4938230895996094,11.226354675292969,998.184814453125,-0.6724029710385354,85.16104125976562,0.6382937464737406,47.24313258307924,0.0,29.48412965778601
1557948010887,-1.069376220703125,-0.38589752197265625,12.118050384521485,998.184814453125,-0.7107531440278917,86.34971618652344,0.4417809931266251,41.42381117535397,,31.414497734004673
1557948010954,-1.0204280090332032,-1.167572021484375,11.279344482421875,998.184814453125,-0.719271344571691,86.34971618652344,0.23925679384687873,41.42380474644594,0.0,26.776069527204932
1557948011022,-0.1772314453125,-0.8828640747070313,11.012449493408203,998.1570434570312,-0.7275158621308808,90.1672134399414,0.3048280079739502,41.42380190611444,0.0,31.11598524880394
1557948011088,0.0580792236328125,-0.23800506591796877,9.138646087646485,998.1570434570312,-0.7201518420301412,91.38300323486328,0.4456497018114632,41.4237942545545,0.0,28.870543780509568
1557948011154,-0.03308120727539063,0.5909710693359376,8.538993072509767,998.1570434570312,-0.7251874319274395,93.51383209228516,0.35105419442771535,41.42379110478083,0.0,26.283889300503116
1557948011220,-0.20911514282226565,0.4369413757324219,8.76771743774414,998.1570434570312,-0.7368692369750746,96.61083221435547,0.048769726319345535,41.4237867199881,0.0,22.52853030979893
1557948011286,0.33485366821289064,0.6210585021972657,7.9323046875,998.1570434570312,-0.7554849151424217,98.26388549804688,0.25015481857671923,41.4237835772707,0.0,27.737864449811937
