timestamp,AccX,BrightnessEV,LinearAccelerometerSensor,AccY,AccZ,BarometerSensor,CompassSensor,MagneticRotationSensor,PitchSensor,DecibelSource
1557947770433,0.9343569946289063,-0.45565943198848613,1.0723059179812469,-0.02664459228515625,13.59502899169922,999.1904449462891,127.64108276367188,47.80858528934815,0.0,24.39332693830263
1557947770460,1.2805870056152344,-0.4480462478786109,0.19375069361854624,0.30731094360351563,12.80616943359375,999.1904449462891,126.18778991699219,47.80858999634226,0.0,24.39332693830263
1557947770531,1.1609857177734375,-0.4480462478786109,0.5884397297539358,0.21165985107421875,10.245294799804688,999.1904449462891,126.18778991699219,47.80859872812672,0.0,24.39332693830263
1557947770579,1.3024415588378906,-0.5022020179255162,0.3588907018097742,0.08711883544921875,9.633816375732422,999.1904449462891,123.8169174194336,47.80860641446397,0.0,21.2057393120585
1557947770638,2.585423583984375,-0.5022020179255162,0.5696084039840845,0.9541159057617188,7.782615966796875,999.1904449462891,123.8169174194336,47.808613701701816,0.0,21.2057393120585
1557947770780,-0.21001327514648438,-0.4065256962504723,0.6470985126374441,1.4861096191406251,8.470285949707032,999.1904449462891,123.8169174194336,44.60493931041671,0.0,23.201462861110542
1557947770838,-0.9729766845703125,-0.48675647321739796,0.36918787489032295,2.2384451293945316,8.15788558959961,999.1951751708984,121.5172119140625,44.604942812615334,0.0,20.934216851622352
1557947770907,-0.5890251159667969,-0.5155341224216693,0.22413661422804929,2.3743624877929688,8.657247161865234,999.1951751708984,119.929443359375,44.60495213859637,,21.172712956557646
1557947770972,-0.9578581237792969,-0.3086356894858205,0.24838777703065673,1.3024415588378906,8.86875732421875,999.1951751708984,119.929443359375,44.60495932914454,0.0,20.89905111439398
1557947771038,-2.091750183105469,-0.271403305159974,0.6963130137599479,1.7965640258789064,11.77481414794922,999.1951751708984,118.30150604248047,44.60496814501156,0.0,35.39076098792777
1557947771107,0.1490899658203125,-0.2927814326251423,0.5678041811200557,1.76991943359375,11.84426971435547,999.1951751708984,117.13397216796875,44.60497450741056,,31.690863574870228
1557947771171,-1.0841954040527344,-0.31512962102116493,0.5572008920051459,-0.0748443603515625,10.52655990600586,999.1951751708984,118.53046417236328,44.60498640213329,0.0,29.960736544852754
1557947771238,0.6173162841796875,-0.30686200503756456,0.49825056323985306,-0.7379653930664063,10.132579193115236,999.1951751708984,118.53046417236328,44.604992343290334,0.0,28.260748027008265
1557947771307,1.0189311218261718,-0.34022060198399534,0.8808439655587048,-1.1648776245117187,6.9325337219238286,999.1951751708984,118.53046417236328,44.60499629151546,0.0,25.622928644564745
1557947771371,2.5656646728515624,-0.1507428031202827,1.1182884831581459,-2.0215461730957034,4.0091130065917975,999.1951751708984,115.44694519042969,44.60500517267759,0.0,26.866362692622936
1557947771438,3.051105194091797,0.4425400138106268,0.9140832219190955,-3.9422021484375,7.472610626220703,999.1951751708984,108.65823364257812,44.60501371534437,0.0,24.14973347970818
1557947771507,6.180198211669922,0.18511147442699863,1.1177798826815004,-5.095254364013672,9.388177185058595,999.1951751708984,97.5944595336914,44.60501205377143,0.0,23.30413773349191
1557947771571,10.863209838867188,-1.8947435425648862,1.476372631026956,-2.343227233886719,8.524922332763673,999.1951751708984,81.35796356201172,44.60501014065444,0.0,22.576785748691847
1557947771638,13.317356414794922,-2.4257328784175995,1.218571131380463,-0.9523196411132813,8.972042541503907,999.1951751708984,64.15771484375,44.60501032886037,0.0,21.67317334748176
1557947771706,14.571448516845704,-2.3031303683502973,0.5827842558537524,-1.2460089111328125,8.239915008544923,999.1951751708984,47.00098419189453,44.60501079696731,0.0,36.18780024506215
1557947771771,7.319628753662109,-2.416998068439991,1.8240216942344611,-1.826202392578125,5.585484924316407,999.1951751708984,45.613677978515625,44.60501008508676,0.0,30.0774777800074
1557947771838,7.452851715087891,-2.761894299188983,0.879436500529551,-4.081712036132813,8.318950653076172,999.1951751708984,45.613677978515625,44.605012719002495,0.0,33.16808752053022
1557947771906,6.970404968261719,-5.431637504835392,2.58663109605753,-4.6942382812500005,-2.285896453857422,999.1951751708984,48.80508804321289,44.605010189802634,,36.959192528314
1557947771971,11.052566070556642,-7.073705176664556,1.734994692919595,-8.187224578857423,3.9222935485839847,999.1951751708984,50.42158126831055,44.60501179927239,,30.849335749367164
1557947772038,6.511309661865234,-7.073705176664556,1.5838705605773484,-2.1508772277832033,1.4316229248046877,999.1951751708984,53.74929428100586,44.60501187525939,183.2470703125,32.650537885040144
1557947772106,5.596262512207032,-7.073705176664556,0.8955144658960672,-4.408931579589844,0.9150471496582032,999.1951751708984,54.772483825683594,44.605010916768975,257.6171875,39.637406188578844
1557947772171,4.898114318847656,-7.073705176664556,0.6870049629363332,-6.800807647705079,-0.4632865905761719,999.1951751708984,58.229129791259766,44.60501298888713,,30.59184617631371
1557947772238,9.509275360107422,-7.073705176664556,1.5009940301713804,-2.920426940917969,1.9473005676269532,999.1951751708984,55.21593475341797,44.60501258906849,,25.965970956264602
1557947772307,6.114634552001953,-7.073705176664556,0.8291783614741636,-1.4232403564453127,2.1646485900878907,999.1951751708984,56.66100311279297,44.60501134014062,0.0,37.131544018372985
1557947772371,7.103777618408204,-7.073705176664556,1.7747731306748402,-8.39933349609375,5.039420471191407,999.1951751708984,58.34339141845703,44.60501120168781,,42.179574617769745
1557947772438,10.282716979980469,-6.751777081777194,2.9494152667119584,-14.254258117675782,-4.258644104003906,999.1951751708984,55.392173767089844,44.60500979568229,,49.943611519080015
1557947772507,14.17507278442383,-4.82577766322097,1.5827694550950338,-10.844947814941406,1.8085391235351564,999.1951751708984,54.50286102294922,44.605014093490205,218.53515625,46.77031770481002
1557947772571,7.350165252685548,-4.266350254606952,3.4875442385113296,-3.00814453125,-1.6100518798828125,999.1951751708984,58.94585418701172,44.605010927287424,,58.07382795380994
1557947772638,6.422693939208985,-4.318817674501087,3.4887327213619432,3.949237518310547,9.013206939697266,999.1951751708984,60.05259323120117,44.60500954363762,151.130859375,47.28426834761584
1557947772706,16.81932403564453,-7.073705176664556,4.052296432890378,4.936883697509766,-5.295088806152344,999.1918182373047,58.562782287597656,44.60501388894545,151.130859375,42.74642694699325
1557947772771,7.942483520507813,-7.073705176664556,1.7723476330714132,-0.173638916015625,-1.2216096496582032,999.1918182373047,58.562782287597656,44.605010637686156,,31.878026387184196
1557947772838,7.174580383300782,-7.073705176664556,0.7494324081942482,0.2520758056640625,0.3692820739746094,999.1918182373047,61.74770736694336,44.60501194609418,142.5439453125,38.15776920298363
1557947772907,8.309370574951172,-7.073705176664556,0.2549090577069908,0.06002517700195313,-0.899329833984375,999.1918182373047,61.74770736694336,44.60501236729469,142.5439453125,48.729192608830544
1557947772971,9.188642120361328,-7.073705176664556,0.38622551888621054,1.1171269226074219,-0.08158035278320312,999.1918182373047,63.17710494995117,44.60501118982395,95.2392578125,33.73095987078727
1557947773038,9.497599639892579,-7.073705176664556,0.23591395114425495,0.14864089965820312,-0.4608915710449219,999.1918182373047,63.17710494995117,44.60501210260887,,28.221680793680175
1557947773106,9.89711883544922,-7.073705176664556,0.2451034644120602,0.757873992919922,-1.101409606933594,999.1918182373047,63.17710494995117,44.60501302557178,155.98673502604169,39.80412461606892
1557947773171,12.056079254150392,-7.073705176664556,0.5923983850105897,0.3426374816894531,-1.434467010498047,999.1918182373047,63.17710494995117,44.605012186031765,155.98673502604169,35.09471352102548
1557947773238,14.53537353515625,-7.073705176664556,0.8801890705162717,2.069147186279297,-0.7116201782226563,999.1918182373047,63.17710494995117,44.605011310442066,83.02620442708334,33.53916230920363
1557947773306,12.396321716308595,-7.073705176664556,0.6721762310246503,-0.2805166625976563,0.3975732421875,999.1918182373047,64.30783081054688,44.605010721282774,53.3251953125,31.746411926604484
1557947773371,8.168214111328126,-7.073705176664556,1.3968427785571829,-2.647694091796875,1.5608042907714845,999.1918182373047,65.35517883300781,44.605012525712944,53.3251953125,33.4693946269899
1557947773438,9.02578079223633,-7.073705176664556,0.3458698470539926,-2.279759216308594,2.491868133544922,999.1918182373047,65.35517883300781,44.60501281033322,32.2412109375,28.597385661971472
1557947773506,7.94427978515625,-6.751777081777194,0.8189795321505106,0.2369572448730469,0.26270370483398436,999.1918182373047,63.835872650146484,44.60501005893981,0.0,29.684829485539353
1557947773571,7.7423497009277344,-7.073705176664556,0.4643474775783456,-1.4280303955078126,-0.70892578125,999.1918182373047,65.249755859375,44.60501219237533,0.0,31.717264536532312
1557947773638,7.519912261962891,-5.903780175222243,0.2922965723662058,-2.2686822509765627,-0.1818717956542969,999.1918182373047,66.81777954101562,44.605013056992554,0.0,31.166077439882486
1557947773706,8.45965805053711,-4.614273558027259,0.36608147291641285,-2.035916290283203,0.7134164428710937,999.1802215576172,67.94065856933594,44.605012174740374,,32.32742062720737
1557947773771,8.307873687744141,-4.2157241815369835,0.5243056152257383,-3.2838711547851562,2.344574432373047,999.1802215576172,69.13591003417969,44.605011359062956,0.0,26.95481676490197
1557947773838,9.532177734375,-4.2157241815369835,0.38335866820570647,-2.8033703613281253,1.0383906555175781,999.1802215576172,69.13591003417969,44.6050126812965,0.0,32.74388795550379
1557947773906,11.00032470703125,-4.373265458523464,0.5374218679020843,-1.7203724670410157,0.8183482360839844,999.1802215576172,69.13591003417969,44.605011461419124,0.0,30.927206446840994
1557947773971,16.989370422363283,-4.373265458523464,1.8174224592944472,-4.56251220703125,3.142115936279297,999.1802215576172,73.06981658935547,44.6050112559312,0.0,30.580462303952814
1557947774039,7.367828521728516,-4.266350254606952,2.0531013325979828,-2.392774200439453,3.5341506958007813,999.1802215576172,76.624755859375,44.6050123651338,0.0,26.776069527204932
1557947774106,7.776628417968751,-4.073705176664556,0.6834527829018076,-2.1472846984863283,5.427862701416016,999.1802215576172,78.50506591796875,44.605012686501325,0.0,25.965970956264602
1557947774171,9.02398452758789,-4.11950886627768,0.453908590170595,-1.7646803283691408,3.383713531494141,999.1802215576172,82.16470336914062,44.60501228016584,0.0,28.29946695941636
1557947774239,9.828561401367187,-4.82577766322097,0.613335267431164,-0.007933502197265626,2.575544128417969,999.1802215576172,87.22709655761719,44.60500996901222,0.0,28.767949762007007
1557947774310,9.427994384765626,-6.4887426759434,0.44393657938804987,0.61072998046875,1.4470408630371094,999.1802215576172,98.14387512207031,44.60501041987812,0.0,31.50756439860309
1557947774372,8.806935882568359,-7.073705176664556,0.375826155540281,-0.47062133789062505,0.69695068359375,999.1802215576172,105.66768646240234,44.60501161344753,0.0,31.86391215695493
1557947774438,8.234825592041016,-7.073705176664556,0.19999115349400584,0.02005828857421875,0.8756790161132812,999.1802215576172,111.72048950195312,44.60501137626422,0.0,27.589118923979736
1557947774506,8.079748077392578,-7.073705176664556,0.12894536864070386,0.14340179443359377,1.06578369140625,999.1802215576172,116.66503143310547,44.60500920541067,0.0,26.5991620006985
1557947774571,8.859626312255859,-7.073705176664556,0.2950742435958444,0.9449848937988282,0.9996212768554688,999.1802215576172,125.01024627685547,44.605013694272294,0.0,27.65668554759014
1557947774638,9.539662170410157,-7.073705176664556,0.727841373100388,1.57352783203125,-1.6375946044921876,999.1802215576172,131.47015380859375,44.60501068073121,0.0,26.364878963533656
1557947774706,9.776619415283204,-7.073705176664556,0.15927852784658442,1.1045530700683595,-1.3398637390136718,999.1685485839844,135.18283081054688,44.60501172710463,0.0,26.73020907128896
1557947774772,9.441765747070313,-7.073705176664556,0.2632189457113153,2.185305633544922,-1.4117143249511719,999.1685485839844,139.26559448242188,44.60501530465464,0.0,22.69512944217916
1557947774838,10.645861816406251,-7.073705176664556,0.29827565425243363,1.62142822265625,-1.2838801574707033,999.1685485839844,144.49386596679688,44.60501211921622,0.0,25.728716022004804
1557947774907,10.7919580078125,-7.073705176664556,0.42759646638490073,0.7481442260742188,0.0484991455078125,999.1685485839844,145.69944763183594,44.60501177000647,0.0,33.868555291847244
1557947774972,8.64407455444336,-7.073705176664556,1.326282421517319,-3.248694305419922,2.1703367614746094,999.1685485839844,145.4446563720703,44.60500958309518,,28.90979596989689
1557947775038,10.141261138916017,-7.073705176664556,0.6576552061284117,0.19983444213867188,2.0387603759765627,999.1685485839844,153.02243041992188,44.60501400741698,,25.352941200427708
1557947775109,9.77736785888672,-7.073705176664556,0.599231658548856,-0.29338989257812503,-0.4739144897460938,999.1685485839844,156.69195556640625,44.60501212017837,0.0,28.512583487190753
1557947775171,9.30509994506836,-7.073705176664556,0.15854637912118602,-0.17797988891601563,-0.42766067504882815,999.1685485839844,161.49888610839844,44.60501320101537,0.0,26.655809910179535
1557947775238,9.176966400146485,-7.073705176664556,0.15639791854131022,0.032931518554687504,0.3691323852539063,999.1685485839844,163.21104431152344,44.605012203792036,0.0,25.95496221825574
1557947775306,9.420809326171875,-7.073705176664556,0.2231049495378202,-0.6855743408203125,-0.33635055541992187,999.1685485839844,164.57225036621094,44.6050111142162,0.0,30.433622780211294
1557947775371,9.102271728515625,-7.073705176664556,0.26860787934699354,-1.3635145568847657,-0.8008346557617188,999.1685485839844,168.38265991210938,44.60501199229474,0.0,32.276296495710085
1557947775438,10.34304153442383,-7.073705176664556,0.4756427704237669,-0.43260040283203127,-1.962568817138672,999.1685485839844,172.7606964111328,44.60501237339178,0.0,26.21176281775035
1557947775510,10.16206787109375,-7.073705176664556,0.19747787982076723,-2.1538710021972656,-1.964963836669922,999.1685485839844,176.5869903564453,44.605010908944855,0.0,31.54423973114647
1557947775571,13.533806304931641,-7.073705176664556,0.9953934774360705,-2.446063385009766,-0.2700384521484375,999.1685485839844,178.03749084472656,44.60501163859264,0.0,32.24014811372864
1557947775639,8.61922622680664,-7.073705176664556,1.22581461357399,-0.7638615417480469,1.420096893310547,999.1685485839844,180.71286010742188,44.605011405780495,0.0,28.115750058705935
1557947775706,9.311536560058594,-7.073705176664556,0.7294817335618164,-2.0166064453125,3.866609344482422,999.1574859619141,179.23748779296875,44.605010968780114,0.0,32.76921132065774
1557947775771,10.034233703613282,-7.073705176664556,0.8134968487853491,1.4018348693847658,3.1927107238769534,999.1574859619141,184.2017059326172,44.60500975944659,0.0,23.710678622717364
1557947775838,9.241482238769532,-7.073705176664556,0.32398098157847555,0.41149429321289066,2.0745359802246095,999.1574859619141,194.212890625,44.60501108646253,0.0,26.51278013998144
1557947775906,8.983269195556641,-7.073705176664556,0.3851767010123101,1.6735198974609375,1.500479736328125,999.1574859619141,195.54608154296875,44.605012500218564,0.0,22.92256071356476
1557947775972,9.99097366333008,-7.073705176664556,0.40965954864270376,1.9305354309082032,0.7656578063964844,999.1574859619141,204.15029907226562,44.60501163086101,0.0,27.56636108245848
1557947776038,9.087602233886718,-7.073705176664556,0.23827202978642445,1.7139358520507812,0.15522720336914064,999.1574859619141,209.64186096191406,44.605011999264086,0.0,24.471580313422194
1557947776106,9.403595123291016,-7.073705176664556,0.40886503605309854,0.40805145263671877,0.9063652038574219,999.1574859619141,211.29864501953125,44.60500879441204,0.0,24.533183400470374
1557947776172,9.92391311645508,-7.073705176664556,0.23909378350521823,1.5893948364257813,0.5568420410156251,999.1574859619141,214.57093811035156,44.6050119892573,0.0,23.560258571931225
1557947776238,10.969339141845703,-7.073705176664556,0.3401976806575746,1.871707763671875,0.13022918701171876,999.1574859619141,217.58489990234375,44.60501238508086,0.0,31.172712956557646
1557947776307,14.281202087402345,-7.073705176664556,0.9136880662801418,2.305954742431641,0.43619293212890625,999.1574859619141,220.59625244140625,44.60501134532731,0.0,31.59266331093494
1557947776371,12.518018646240234,-7.073705176664556,0.893416162416934,-0.3201841735839844,2.805765380859375,999.1574859619141,218.9374542236328,45.763255765678004,,30.038911662369102
1557947776438,7.1172496032714845,-7.073705176664556,1.6546685448090868,-2.448608093261719,4.3700125122070315,999.1574859619141,217.14500427246094,45.76325913096901,,28.518696007297663
1557947776506,9.313033447265626,-7.073705176664556,0.36291463706526433,-1.034498748779297,4.803960113525391,999.1574859619141,209.8859100341797,45.763265119505284,0.0,28.45098040014257
1557947776571,9.11304931640625,-7.073705176664556,0.7593945027254705,-0.8785231018066406,1.5411950683593751,999.1574859619141,212.3358612060547,45.76327244772954,0.0,28.007170782823852
1557947776638,8.276888122558594,-7.073705176664556,0.3706156479518175,-0.98914306640625,1.0723699951171874,999.1574859619141,213.9095458984375,45.76328159318151,0.0,32.67875419318897
1557947776706,8.180488586425781,-7.073705176664556,0.49863962251429644,-1.7524058532714846,3.1927107238769534,999.1408538818359,208.63584899902344,45.76329138729325,0.0,38.95146189375992
1557947776772,6.4975382995605475,-6.4887426759434,0.696275247386246,-2.7750791931152343,4.523742828369141,999.1408538818359,205.1180419921875,45.76329311709759,,30.759117614827773
1557947776838,7.373965759277344,-5.373265458523464,0.47356038561643293,-4.038451995849609,3.107238464355469,999.1408538818359,206.4298553466797,45.76329100760834,36.572265625,23.944516808262165
1557947776910,9.52589080810547,-5.1668145810560375,0.5924592379398405,-2.9461734008789064,3.463796997070313,999.1408538818359,210.02902221679688,45.763292327228555,36.572265625,39.979103673467435
1557947776972,11.121722259521485,-5.266350254606952,0.7592089761035801,-2.429148559570313,5.453459472656251,999.1408538818359,212.73922729492188,45.763294457196274,,34.673120629805524
1557947777038,9.77886474609375,-5.266350254606952,1.0232221732791587,-5.993386688232422,7.095395050048828,999.1408538818359,214.9730682373047,45.76328986917034,193.71233258928572,34.8826861549546
1557947777107,6.490353240966797,-5.266350254606952,1.7751600116707893,1.0223739624023438,6.110293579101563,999.1408538818359,218.63723754882812,45.76329449124697,,29.138138523837167
1557947777171,8.204438781738281,-5.373265458523464,0.42258847118796355,-1.743424530029297,5.415588226318359,999.1408538818359,219.72360229492188,45.763290778633724,,29.876662649262748
1557947777238,8.83283203125,-5.614273558027259,0.6787687026855096,0.24219635009765625,3.655997314453125,999.1408538818359,224.22576904296875,45.763293175582795,0.0,28.715729355458784
1557947777306,8.157137145996094,-6.266350254606952,0.6857930253965532,1.4593153381347657,1.9950512695312501,999.1408538818359,226.8309326171875,45.763291674270405,0.0,29.618954736678504
1557947777371,8.051905975341798,-6.751777081777194,0.16122778651790182,0.45535308837890626,2.418520660400391,999.1408538818359,226.8309326171875,45.76329252339502,0.0,33.65862215402555
1557947777439,7.337591400146485,-7.073705176664556,0.2479043529983498,-0.021106109619140626,2.448458404541016,999.1408538818359,225.75608825683594,45.763291699517765,,27.958800173440753
1557947777507,9.088051300048829,-7.073705176664556,0.44994146908577215,0.8701405334472657,2.9692254638671876,999.1408538818359,223.9912567138672,45.76329117548569,0.0,25.71708831808688
1557947777571,10.096803588867187,-7.073705176664556,0.5441689324782915,2.354154510498047,2.801723785400391,999.1408538818359,225.4298095703125,45.7632902930185,0.0,26.93726948923647
1557947777638,12.693154449462892,-7.073705176664556,0.9598292421989272,-0.18875747680664062,1.5691868591308595,999.1408538818359,228.2030029296875,45.7632934909626,0.0,41.33858125203335
1557947777706,14.380745086669922,-7.073705176664556,1.1398363943158076,3.346590728759766,4.3062451171875,999.1162872314453,227.7457733154297,45.76329345812804,,37.717344253867694
1557947777771,8.493637390136719,-7.073705176664556,2.1250565852651744,-4.063300323486328,3.849993896484375,999.1162872314453,222.91712951660156,45.763292154036165,86.1767578125,32.21935599828005
1557947777839,5.868995361328126,-7.073705176664556,1.0494061176338814,-2.035616912841797,5.200186157226563,999.1162872314453,216.73556518554688,45.7632909412249,0.0,30.20775488193558
1557947777912,8.023465118408204,-7.073705176664556,0.5924000627167086,-1.1311976623535156,2.8852500915527344,999.1162872314453,215.01461791992188,45.76329302953804,0.0,34.44513206334043
1557947777972,8.3490380859375,-7.073705176664556,0.98837765175506,0.4483177185058594,0.0940045166015625,999.1162872314453,217.09210205078125,45.76329082791052,,33.44195715871435
1557947778038,7.149732055664063,-6.751777081777194,0.8682764004384574,-2.7427464294433594,2.884950714111328,999.1162872314453,212.35446166992188,45.76328925967649,40.68359375,32.03576774977972
1557947778106,7.80102767944336,-5.751777081777194,0.41270827308637403,-2.744243316650391,3.8511914062500003,999.1162872314453,208.03018188476562,47.083043278188505,40.68359375,32.650537885040144
1557947778172,6.941065979003906,-5.751777081777194,0.27698560459375937,-3.289259948730469,3.1129266357421876,999.1162872314453,208.03018188476562,47.08304338226086,,30.429690733931803
1557947778238,9.155111846923829,-5.903780175222243,0.5097278667727125,-3.0765522766113285,2.957998809814453,999.1162872314453,209.3876953125,47.083052708134865,0.0,23.09630167425899
1557947778306,10.360255737304689,-5.903780175222243,0.4828370751118356,-3.1642698669433593,3.852089538574219,999.1162872314453,211.678466796875,47.08306380303006,0.0,28.06179973983887
1557947778372,13.744867401123047,-6.266350254606952,1.7735809880272595,-7.066056060791016,7.87527328491211,999.1162872314453,213.1904296875,47.083071522840214,0.0,31.684974835230328
1557947778438,7.533234558105469,-6.751777081777194,1.9907065378967568,-0.3638932800292969,4.844675445556641,999.1162872314453,215.03773498535156,47.08308321187214,0.0,24.955443375464483
1557947778507,7.182962951660157,-6.751777081777194,0.5067850410634983,-1.1993060302734375,6.3408142089843755,999.1162872314453,220.09999084472656,47.083098593745206,0.0,24.14973347970818
1557947778572,9.332492980957031,-6.4887426759434,0.789125838843415,0.5080435180664062,4.210743713378906,999.1162872314453,225.12442016601562,47.08310345186964,0.0,28.382192219076256
1557947778638,8.407117309570314,-6.266350254606952,0.44550357751965064,0.7936495971679688,3.1400202941894535,999.1162872314453,230.1348419189453,47.08310225740302,0.0,25.943925503754265
1557947778706,6.980583801269532,-6.751777081777194,0.48827201127073566,0.34907409667968753,2.3644830322265626,999.1162872314453,231.43502807617188,47.08310330312493,0.0,32.15637563435062
1557947778772,7.219936065673829,-7.073705176664556,0.14820364180735487,0.1830693054199219,2.128872985839844,999.0898132324219,231.43502807617188,47.0831050786651,0.0,24.13299764081252
1557947778838,9.031768341064453,-7.073705176664556,0.5608773693268213,1.361418914794922,3.052302703857422,999.0898132324219,228.63955688476562,47.083103117640846,0.0,28.363241157067517
1557947778906,10.78477294921875,-7.073705176664556,0.6038183311370806,2.043999481201172,2.569556579589844,999.0898132324219,228.63955688476562,47.08310643464836,0.0,26.963563887333322
1557947778973,12.605287170410158,-7.073705176664556,0.6893946206037977,0.5177732849121094,2.0609143066406252,999.0898132324219,230.54168701171875,47.08310408909132,,34.17471693203293
1557947779039,14.345717926025392,-7.073705176664556,0.8988347500484664,2.930156707763672,4.118685150146485,999.0898132324219,231.95675659179688,47.083106343145744,,37.59743367597725
1557947779107,8.485703887939454,-7.073705176664556,1.9373748604737588,-3.453468475341797,4.908143463134766,999.0898132324219,223.7685546875,46.07705521594138,85.69010416666666,29.822712330395685
1557947779172,6.566245422363282,-7.073705176664556,0.9622945405847048,-1.042881317138672,6.1664268493652346,999.0898132324219,220.86093139648438,46.07706709799885,0.0,33.16389751073195
1557947779238,9.54894287109375,-7.073705176664556,1.0827546311345602,-0.6614744567871094,2.0718415832519534,999.0898132324219,220.86093139648438,46.07707607503265,,36.19823500457278
1557947779307,7.364235992431641,-7.073705176664556,0.5041368658139759,-0.5721102905273437,1.861828308105469,999.0898132324219,222.50885009765625,46.077085874886194,,31.16939646550756
1557947779371,7.39866439819336,-6.4887426759434,0.4566946773917713,-1.3153147888183594,3.7988003540039066,999.0898132324219,217.09963989257812,46.07709570012078,81.256103515625,32.41795431295199
1557947779439,6.634503479003906,-5.614273558027259,0.574705390249973,-3.187621307373047,3.999532928466797,999.0898132324219,215.43215942382812,46.07709806158308,,30.962145853464055
1557947779506,8.9525830078125,-5.373265458523464,0.550445783555599,-2.5167164611816406,3.2154634094238284,999.0898132324219,217.21177673339844,46.07709814647696,0.0,29.143431571194405
1557947779571,10.394983520507813,-5.266350254606952,0.5061656793678327,-2.096240844726563,3.4874478149414063,999.0898132324219,223.1105194091797,46.07709435057823,0.0,29.618954736678504
1557947779639,11.411669311523438,-5.266350254606952,1.6547848080764216,-5.53489013671875,8.980724487304688,999.0898132324219,228.61183166503906,46.077094584919465,0.0,34.948500216800944
1557947779707,6.761738891601563,-5.614273558027259,1.5145341530841638,-0.948427734375,5.516927490234376,999.0898132324219,230.41709899902344,46.07709487925634,,28.457180179666587
1557947779771,7.395820312500001,-5.4887426759434,0.4291885466413685,-0.27393035888671874,6.428531799316406,999.063720703125,237.9468994140625,46.077097748584215,,27.347998295888473
1557947779838,9.470056915283203,-5.4887426759434,0.7397233394185455,0.3914360046386719,4.397555236816406,999.063720703125,239.53244018554688,46.07709398397017,0.0,26.39486489268586
1557947779907,8.539891204833985,-6.4887426759434,0.6809115145927158,1.0023156738281251,2.2370979309082033,999.063720703125,242.1740264892578,46.07709795264354,0.0,33.477202170340384
1557947779973,8.125103759765626,-7.073705176664556,0.179051207701862,0.305364990234375,3.0758038330078126,999.063720703125,242.1740264892578,43.27965085140022,0.0,28.621313793130373
1557947780038,7.272476806640626,-7.073705176664556,0.24655861076159902,0.3608995056152344,3.0220655822753906,999.063720703125,245.4686279296875,43.27965729666563,0.0,26.08526033577194
1557947780107,8.40412353515625,-7.073705176664556,0.2787323482793091,1.0192304992675782,3.243604888916016,999.063720703125,245.4686279296875,43.27965945287301,0.0,23.344537511509312
1557947780172,9.1825048828125,-7.073705176664556,0.3130856809083135,1.1419752502441407,2.4911196899414065,999.063720703125,244.46490478515625,43.27966792133594,0.0,27.888751157754168
1557947780238,11.084000701904298,-7.073705176664556,0.6072747483733939,0.1782792663574219,2.138602752685547,999.063720703125,246.03688049316406,43.27968084903658,0.0,41.30526745384164
1557947780307,12.910652160644531,-7.073705176664556,0.6127358933734397,0.41044647216796876,2.7942393493652347,999.063720703125,246.03688049316406,43.27968720608585,,36.834973176798115
1557947780371,12.719799041748047,-7.073705176664556,1.2006710995544083,-1.3468991088867188,7.085515594482422,999.063720703125,244.7323760986328,43.279694244968155,119.13899739583334,33.02547372487486
1557947780438,6.514004058837891,-7.073705176664556,1.7806505388965124,-2.977608032226563,2.944377136230469,999.063720703125,240.54286193847656,43.279699188823464,,34.340896384178905
1557947780507,9.092242584228517,-7.073705176664556,0.37337508958717697,-1.5759228515625001,3.1163694763183596,999.063720703125,240.54286193847656,43.27971136841316,,31.607685618611278
1557947780572,7.8710820007324225,-7.073705176664556,0.4082060293763407,-1.603315887451172,1.9547850036621095,999.063720703125,238.88343811035156,43.27972167656119,0.0,31.875207208364632
1557947780638,7.755671997070313,-7.073705176664556,0.436244779446677,0.0544866943359375,2.193688201904297,999.063720703125,238.88343811035156,43.27972858289282,0.0,30.65206128054312
1557947780706,7.995922393798828,-6.4887426759434,0.4667235745312008,-1.9561322021484375,3.1919622802734375,999.063720703125,236.47763061523438,43.69969268753215,0.0,29.27883410330707
1557947780772,7.480693817138672,-5.903780175222243,0.3140535572179157,-2.2700294494628905,3.8678068542480473,999.0381622314453,236.47763061523438,43.69970086253003,0.0,29.041743682841634
1557947780838,8.463849334716798,-5.1668145810560375,0.2932966215702701,-2.4710614013671877,2.9400361633300784,999.0381622314453,234.9869842529297,43.699710580426306,0.0,29.947569445876283
1557947780906,10.292746124267579,-4.986242335414216,0.5393292619984917,-1.8181192016601564,3.515589294433594,999.0381622314453,234.9869842529297,43.699714873437046,0.0,30.799044676667204
1557947780971,10.005044403076173,-5.073705176664556,0.9059312615314548,-4.708608398437501,5.857619018554688,999.0381622314453,237.7242889404297,43.699722494807,0.0,33.543005623453595
1557947781038,9.775721282958985,-5.4887426759434,0.9601733794566164,2.28005859375,7.438182220458985,999.0381622314453,240.16293334960938,43.69973378476561,,36.4738297011462
1557947781106,8.235574035644532,-5.4887426759434,0.7789878876700284,-2.5523423767089843,4.968468017578125,999.0381622314453,243.58802795410156,43.69973790587714,393.3642578125,34.245549766067136
1557947781171,8.735534362792968,-5.614273558027259,0.7370840241621143,0.5525010681152344,6.726562042236329,999.0381622314453,245.3662872314453,43.699747755179054,393.3642578125,31.489109931093566
1557947781239,8.353079681396485,-6.266350254606952,1.0063602238202942,0.09175918579101563,2.4102877807617187,999.0381622314453,247.34666442871094,43.699754986825766,0.0,30.65206128054312
1557947781306,7.656727752685547,-7.073705176664556,0.6761980621824676,0.4297563171386719,0.852626953125,999.0381622314453,249.19093322753906,43.699760507062756,0.0,28.621313793130373
1557947781371,7.085216217041016,-7.073705176664556,0.4346387896438853,-1.1802955627441407,1.8729052734375,999.0381622314453,247.9809112548828,43.69976824083828,0.0,30.813473078041326
1557947781438,6.971602478027344,-7.073705176664556,0.5704953239978682,0.9093589782714844,3.255879364013672,999.0381622314453,246.25318908691406,43.69978006772666,0.0,26.19093330626743
1557947781511,11.980037384033205,-7.073705176664556,1.2489346046879592,1.2702584838867188,2.987487487792969,999.0381622314453,246.25318908691406,43.69977875947129,0.0,30.484418035504042
1557947781571,11.241922302246094,-7.073705176664556,0.7018310972171099,1.5103591918945314,0.23366409301757815,999.0381622314453,248.25177001953125,43.69978088678604,0.0,40.3893791903862
1557947781639,14.909595336914064,-7.073705176664556,0.956353625154535,0.8954379272460938,0.97477294921875,999.0381622314453,249.5409393310547,43.699779912688705,0.0,35.14813294999285
1557947781706,13.08054885864258,-7.073705176664556,0.8509436110524836,-0.10702743530273438,4.0478823852539065,999.0381622314453,249.5409393310547,43.04598525545406,,33.74381698050882
1557947781772,5.887556762695313,-7.073705176664556,2.0183335399651257,-2.545756072998047,4.9546966552734375,999.0122222900391,242.91905212402344,43.04598957905115,128.1640625,31.041455505540082
1557947781838,8.355325012207032,-6.4887426759434,0.36071120782721705,-1.077908477783203,3.493884429931641,999.0122222900391,238.06576538085938,43.0459963980551,0.0,30.73351702386901
1557947781906,9.205856323242188,-7.073705176664556,1.1715424782569854,0.11570938110351563,-0.6068380737304688,999.0122222900391,238.06576538085938,43.046006723054184,0.0,34.65085287557433
1557947781972,7.357200622558594,-7.073705176664556,0.6055582869158147,-2.0377125549316406,0.7156617736816406,999.0122222900391,235.17523193359375,43.04601254825909,,32.97322714205303
1557947782038,7.560926971435547,-6.751777081777194,0.7298849646203304,-2.422113189697266,3.2855177307128907,999.0122222900391,230.220458984375,43.04601352928186,31.77490234375,32.180100429843634
1557947782114,6.281687164306641,-4.751777081777194,0.5962673524105147,-3.8416113281250004,3.878584442138672,999.0122222900391,227.9865264892578,43.04601159483084,0.0,30.056094453602803
1557947782171,11.064840545654297,-4.6813877538857955,1.2139334172021643,-2.476150817871094,2.0148101806640626,999.0122222900391,230.2086181640625,43.046011710080904,0.0,26.9810054562339
1557947782238,10.176737365722657,-4.903780175222243,0.36794752120162455,-2.7641519165039066,3.8544845581054688,999.0122222900391,235.6517333984375,42.83974044564344,0.0,31.389339402569234
1557947782313,13.899645538330079,-5.1668145810560375,1.8441514806278705,-6.104605407714844,8.849148101806641,999.0122222900391,237.2311553955078,42.839751674816405,,29.614210940664485
1557947782372,4.9494575500488285,-5.266350254606952,2.6098538306925625,0.10807525634765626,3.4986744689941407,999.0122222900391,238.23681640625,42.83975564354173,,27.032913781186615
1557947782438,9.301956481933594,-5.4887426759434,0.8981792724529558,-0.9574090576171875,7.013066253662109,999.0122222900391,242.5203399658203,42.839759174994036,0.0,27.024305364455255
1557947782506,9.605674896240235,-6.4887426759434,1.1447448935806996,-0.09834548950195313,1.9438577270507813,999.0122222900391,245.85386657714844,42.83976110845503,0.0,30.24485667699167
1557947782571,8.000712432861329,-7.073705176664556,0.6344348890617133,0.7955955505371094,1.2581336975097657,999.0122222900391,248.4938507080078,42.83975955488637,0.0,34.68937805665461
1557947782638,6.250701599121094,-7.073705176664556,0.5317305602327732,0.7526348876953125,1.500479736328125,999.0122222900391,248.4938507080078,42.8397620995581,,24.885507165004444
1557947782706,7.80821273803711,-7.073705176664556,0.4500217625261433,0.5863307189941407,3.023412780761719,999.0122222900391,248.4938507080078,42.839758135051774,0.0,25.658478186735177
1557947782772,10.067314910888673,-7.073705176664556,0.6480557552120922,0.7259902954101562,3.003204803466797,998.9811706542969,248.4938507080078,42.83975991045455,0.0,20.755469613925307
1557947782838,10.693013763427736,-7.073705176664556,0.3404210890303817,1.3762380981445312,2.5837770080566407,998.9811706542969,248.4938507080078,42.839760495200466,0.0,26.93726948923647
1557947782907,14.151272277832032,-7.073705176664556,0.9886992115305324,0.06571334838867188,2.6505381774902346,998.9811706542969,248.4938507080078,42.83975933515224,,33.98981066658131
1557947782971,12.941188659667969,-7.073705176664556,0.7150116545540864,0.7300318908691407,5.5182746887207035,998.9811706542969,248.4938507080078,42.839759573511934,78.81208147321428,34.868553552769434
1557947783038,7.1419482421875005,-7.073705176664556,1.8619306321771085,-3.9469921875000002,4.650529174804688,998.9811706542969,242.9008026123047,42.83976074483196,,32.70678836144707
1557947783111,7.028484191894532,-7.073705176664556,0.5125498333939011,-3.958817596435547,4.111051025390625,998.9811706542969,237.72640991210938,42.839759522436,,33.318320444362485
1557947783171,9.054820404052736,-6.751777081777194,1.089878594256479,-0.13636642456054687,2.900518341064453,998.9811706542969,237.72640991210938,42.839762856819284,66.83785574776786,47.967061278297685
1557947783238,7.327861633300782,-7.073705176664556,0.7472625555061512,-1.8341358947753907,0.238304443359375,998.9811706542969,237.72640991210938,42.83975945046864,62.96297200520833,39.20279894632949
1557947783306,6.0079064941406255,-5.751777081777194,0.8722283902913589,-4.4051893615722655,2.202220458984375,998.9811706542969,233.23451232910156,42.83976211381051,62.96297200520833,54.16009406835785
1557947783371,8.092920684814453,-5.614273558027259,0.6123527258401775,-2.26329345703125,0.820144500732422,998.9811706542969,234.80514526367188,42.83976400502687,60.9814453125,31.97004728023046
1557947783438,8.178243255615234,-6.073705176664556,0.451573244599007,-3.9980360412597657,2.14354248046875,998.9811706542969,236.18441772460938,42.83976021962726,75.2646484375,32.880255353883626
1557947783507,9.37695053100586,-6.266350254606952,0.3337022975628971,-3.5163377380371097,1.7887802124023438,998.9811706542969,237.50331115722656,42.83975778365393,,34.44200988864159
1557947783571,11.349847869873047,-5.751777081777194,0.5961314809526034,-4.022285614013672,2.295476531982422,998.9811706542969,244.0540771484375,42.839760795672454,,34.74216264076255
1557947783638,17.6367741394043,-5.373265458523464,1.9849444933954419,-4.789440307617188,5.220394134521484,998.9811706542969,249.91302490234375,42.839763744011364,84.1552734375,43.537431707539355
1557947783710,6.379284210205078,-5.903780175222243,2.6062082636846124,-1.6660354614257813,3.5714231872558595,998.9811706542969,251.26144409179688,42.83976183272828,53.8330078125,40.083446292526894
1557947783772,9.672585754394532,-5.903780175222243,0.7155262358398744,-1.1189231872558594,6.005212097167969,998.9456939697266,255.57777404785156,42.839758713531026,53.8330078125,32.46498580795801
1557947783838,8.651109924316406,-6.266350254606952,1.0438804771005874,-1.795067138671875,1.36276611328125,998.9456939697266,257.509765625,42.83976107650649,,32.78524964737017
1557947783910,6.238277435302734,-6.4887426759434,1.6580495237924493,-0.6899153137207031,2.2908361816406253,998.9456939697266,261.6089172363281,42.839761669623435,99.8082275390625,44.145388361968
1557947783971,10.718311157226562,-6.751777081777194,2.0554598454323374,2.2400917053222655,-0.1818717956542969,998.9456939697266,266.81024169921875,42.51990154795374,107.509765625,42.211272217424366
1557947784039,7.220085754394532,-7.073705176664556,1.2554272530201744,-1.490749969482422,-1.8624270629882813,998.9456939697266,266.81024169921875,42.51990979648054,107.509765625,30.54613054556888
1557947784110,9.206155700683594,-7.073705176664556,0.7416646164707014,1.224902801513672,1.1705657958984375,998.9456939697266,268.141357421875,42.519918403266864,,33.494717992143855
1557947784171,11.651470642089844,-7.073705176664556,0.7222715661877155,0.48454238891601564,-0.008532257080078126,998.9456939697266,270.6679382324219,42.5199276723966,31.9482421875,42.38497735307359
1557947784239,8.89794662475586,-7.073705176664556,0.6454222430159783,-0.3059637451171875,-1.1297007751464845,998.9456939697266,263.3755187988281,42.519935086847546,31.9482421875,42.90835646600807
1557947784307,12.900173950195313,-7.073705176664556,0.9579288379802561,-1.526824951171875,-1.4819183349609375,998.9456939697266,261.9923095703125,42.519938670077295,33.720703125,41.25123272551998
1557947784371,8.699908447265626,-7.073705176664556,0.9738872841819021,-2.1727317810058593,0.21959335327148438,998.9456939697266,259.62005615234375,42.51994073960968,,43.27277177141755
1557947784438,13.070669403076172,-4.318817674501087,1.316669566263227,-6.710245971679688,1.8269508361816407,998.9456939697266,252.7122039794922,42.51993739042404,58.8330078125,32.42789809478677
1557947784506,9.977950744628906,-5.073705176664556,0.9665526421970941,-6.250252532958985,4.4351271057128905,998.9456939697266,249.43731689453125,42.519936019370085,58.8330078125,39.65859936807072
1557947784571,10.497520294189453,-5.751777081777194,0.774350623543096,-5.678142242431641,6.7457221984863285,998.9456939697266,249.20481872558594,42.51993795194193,54.91231863839286,39.35608018517869
1557947784638,6.785090332031251,-6.073705176664556,1.017082939135411,-6.866221618652344,7.231462097167969,998.9456939697266,246.97341918945312,42.51993715495085,32.2998046875,45.91543180751537
1557947784714,4.435276794433594,-3.3188176745010876,1.024595842809646,-6.768025817871094,3.4802627563476562,998.9456939697266,244.71412658691406,42.51993821007731,32.2998046875,40.634834780275284
1557947784771,7.8921881103515625,-2.733855173779931,1.3598040400153526,-5.831124114990235,0.40206390380859375,998.9131164550781,235.54623413085938,42.51993780151951,,36.2211036036122
1557947784839,6.611601104736328,-3.0513373636361014,0.18442110388800942,-6.249653778076172,1.2235556030273438,998.9131164550781,237.05221557617188,42.51993771710518,36.15234375,27.85329835010767
1557947784914,5.367987213134766,-3.1429678391016695,0.6366386202986876,-4.446204071044922,1.513502655029297,998.9131164550781,254.33914184570312,42.51994058913849,0.0,20.253058652647702
1557947784971,6.211782531738281,-3.581852080334881,0.5245369479219791,-6.727759552001953,2.0710931396484376,998.9131164550781,299.5843200683594,42.51994026996092,0.0,22.55272505103306
1557947785041,6.6066613769531255,-3.4887426759433997,1.256760858375612,-1.595232696533203,3.6585420227050784,998.9131164550781,312.53973388671875,42.51994188286401,0.0,25.211380837040362
1557947785230,0.7725434875488282,-2.9444221597195894,2.6932577183844866,1.824855194091797,9.847422180175782,998.9131164550781,356.53729248046875,42.51993787732964,0.0,33.43802333161655
1557947785251,0.6852749633789063,-2.9444221597195894,0.779883542893179,1.953138427734375,11.579620056152343,998.9131164550781,8.753129005432129,42.51993787732964,0.0,33.43802333161655
1557947785419,0.12888198852539062,-2.9444221597195894,0.30257897832633057,1.8022521972656251,10.224039001464844,998.9131164550781,14.203948974609375,42.519937511575755,0.0,33.43802333161655
1557947785458,0.27138565063476566,-2.9444221597195894,0.15619209542722237,1.6956738281250001,9.797276458740235,998.9131164550781,16.130353927612305,42.51993878963351,0.0,33.43802333161655
1557947785549,-0.552052001953125,-2.9444221597195894,0.4455328227564359,2.1812640380859376,8.4544189453125,998.9131164550781,20.39986801147461,42.51993715884514,,
1557947785579,-0.8545729064941406,-2.9444221597195894,0.18642863037090496,1.5627502441406251,8.6268603515625,998.9131164550781,28.30458641052246,42.51993715884514,,
1557947785638,0.4177812194824219,-2.9444221597195894,0.7299899284770874,0.29832962036132815,10.976524200439453,998.9131164550781,43.61019515991211,42.51993812910441,,
1557947785711,1.4745835876464843,-2.9444221597195894,0.6435082663246254,2.135159912109375,9.247769165039063,998.9131164550781,47.312889099121094,42.519938986793164,,
1557947785771,0.8068222045898438,-2.9444221597195894,0.29342684650066553,2.790946197509766,8.732839965820313,998.8854217529297,51.01115036010742,42.51993774860369,,
1557947785839,0.10508148193359376,-2.9444221597195894,0.2969201597733802,2.8602520751953127,9.586365051269532,998.8854217529297,55.56711959838867,42.519939306529764,,
1557947785912,-0.621357879638672,-2.9444221597195894,0.2723015447464967,3.346590728759766,9.581874389648439,998.8854217529297,62.23363494873047,42.519940832577994,,
1557947785971,-1.101559295654297,-2.9444221597195894,0.1897224544752438,3.4528697204589847,9.648485870361329,998.8854217529297,70.0255355834961,42.519939174320086,,
1557947786039,-0.96998291015625,-2.9444221597195894,0.13301135779243556,2.953807525634766,9.324858856201173,998.8854217529297,74.9368667602539,42.51993837842139,,
1557947786106,-0.3534150695800781,-2.9444221597195894,0.16224767881345376,2.8286677551269532,9.386231231689454,998.8854217529297,80.97218322753906,42.51994063450886,,
1557947786171,1.717079315185547,-2.9444221597195894,0.5763930853401934,2.4768992614746095,9.849068756103517,998.8854217529297,85.38365936279297,42.51994045760381,,
1557947786238,1.9580781555175781,-2.9444221597195894,0.33071593147227124,1.5533198547363283,9.941277008056641,998.8854217529297,96.37505340576172,42.51993941082072,,
1557947786311,1.5444882202148438,-2.9444221597195894,0.1582974207116064,1.9113752746582031,9.303752746582031,998.8854217529297,102.99191284179688,42.51993875452712,,
1557947786371,1.3648617553710938,-2.9444221597195894,0.21229750665731179,2.2605990600585937,10.174791412353516,998.8854217529297,108.90069580078125,42.51993827337682,,
1557947786438,1.0276130676269533,-2.9444221597195894,0.16728199971835556,2.6071284484863284,9.682016143798828,998.8854217529297,114.36182403564453,42.51994063419541,,
1557947786512,0.5695655822753907,-2.9444221597195894,0.3217020804215979,3.0126351928710937,8.721613311767578,998.8854217529297,120.88230895996094,42.519940370778166,,
1557947786571,0.21570144653320314,-2.9444221597195894,0.13432396108448078,3.0981074523925782,8.991502075195314,998.8854217529297,126.17332458496094,42.519938333624474,,
1557947786638,-0.14340179443359377,-2.9444221597195894,0.1944913489347379,3.573369140625,9.294172668457032,998.8854217529297,130.3824005126953,42.51993836188494,,
1557947786711,0.5135820007324219,-2.9444221597195894,0.21625390841882813,3.2540830993652343,9.870174865722657,998.8854217529297,137.31765747070312,42.519939352524936,,
1557947786772,0.6819818115234375,-2.9444221597195894,0.12250094921018734,2.983894958496094,9.487720184326172,998.8571166992188,140.248779296875,42.519940852983304,,
1557947786837,0.10074050903320313,-2.9444221597195894,0.17229347109124818,2.624642028808594,9.378148040771485,998.8571166992188,142.92034912109375,41.09988433874765,,
1557947786907,0.28186386108398437,-2.9444221597195894,0.3555342667172677,1.8306930541992188,10.516081695556641,998.8571166992188,146.70184326171875,41.09988720253632,,
1557947786971,-1.033450927734375,-2.9444221597195894,0.3804327902009358,2.727777557373047,10.29184799194336,998.8571166992188,146.70184326171875,41.09989308175004,,
1557947787038,-0.3359014892578125,-2.9444221597195894,0.3543279883372415,2.0122654724121096,11.805051269531251,998.8571166992188,146.70184326171875,41.099900315411276,,
1557947787113,0.3597019958496094,-2.9444221597195894,0.7015763475797574,2.7925927734375002,8.876541137695312,998.8571166992188,145.60792541503906,41.09990031455596,,
1557947787171,0.4351451110839844,-2.9444221597195894,0.3579326240411679,2.9927265930175784,8.171956329345704,998.8571166992188,145.60792541503906,41.09989799839141,,
1557947787238,0.6950047302246094,-2.9444221597195894,0.12760625750968638,2.7425967407226564,8.868457946777344,998.8571166992188,147.25897216796875,41.099901202951855,,
1557947787310,0.775986328125,-2.9444221597195894,0.26638852705078914,2.919379119873047,9.823322296142578,998.8571166992188,146.0716552734375,41.099901143823324,,
1557947787372,1.4685960388183594,-2.9444221597195894,0.43697956740135047,2.4369323730468753,10.570867767333985,998.8571166992188,146.0716552734375,41.099902970755345,,
1557947787438,2.6003924560546876,-2.9444221597195894,0.4085483934678502,2.0398081970214843,11.529474334716797,998.8571166992188,149.8521728515625,41.099901702389126,,
1557947787512,2.5572821044921876,-2.9444221597195894,0.15525929354420967,1.6528628540039063,11.59189453125,998.8571166992188,151.5166473388672,41.099900191349214,,
1557947787574,2.8201354980468754,-2.9444221597195894,0.5730093389680603,1.4112652587890626,9.291777648925782,998.8571166992188,154.19264221191406,41.0999008638518,,
1557947787638,1.64058837890625,-2.9444221597195894,0.5073092051303916,1.6612454223632813,8.148904266357423,998.8571166992188,154.19264221191406,41.0999004873712,,
1557947787713,1.5582595825195313,-2.9444221597195894,0.30585120226135054,2.258353729248047,7.5998460388183595,998.8571166992188,157.06997680664062,41.09990157978292,,
1557947787771,1.9953506469726563,-2.9444221597195894,0.15991809864494058,1.7137861633300782,8.20578598022461,998.8258361816406,159.08006286621094,41.09990175315008,,
1557947787838,2.532134399414063,-2.9444221597195894,0.2228961464244362,1.8953585815429688,7.4835379028320315,998.8258361816406,161.2431640625,41.09989868090974,,
1557947787913,2.5509951782226565,-2.9444221597195894,0.31710494794997035,2.1941372680664064,8.856482849121095,998.8258361816406,168.85791015625,41.09990033991201,,
1557947787971,1.2353810119628907,-2.9444221597195894,0.8800728328398024,2.3135888671875002,11.829151153564453,998.8258361816406,171.05429077148438,41.0998976778795,,
1557947788038,1.2611274719238281,-2.9444221597195894,0.4012793517895666,2.938389587402344,12.436887359619142,998.8258361816406,178.8154296875,41.09990034137581,,
1557947788107,0.0077838134765625,-2.9444221597195894,0.6375572532896837,1.7127383422851563,13.984668731689453,998.8258361816406,180.29554748535156,41.09989957173247,,
1557947788172,0.18082397460937502,-2.9444221597195894,0.6272054579461919,1.6569044494628906,11.10615463256836,998.8258361816406,178.02984619140625,43.66369963278092,,
1557947788238,0.5456153869628907,-2.9444221597195894,0.34299603655394856,2.472558288574219,10.854228515625001,998.8258361816406,172.96995544433594,43.663701488456276,,
1557947788314,1.6690292358398438,-2.9444221597195894,0.5202411442039584,1.932631072998047,9.394464111328125,998.8258361816406,168.88536071777344,43.663716928852445,,
1557947788372,0.8506809997558594,-2.9444221597195894,0.9033085350012906,1.9317329406738282,6.237379302978516,998.8258361816406,162.0382537841797,43.66372771022126,,
1557947788438,1.3995895385742188,-2.9444221597195894,0.47091487849989605,2.139051818847656,5.304668884277344,998.8258361816406,156.50289916992188,43.66373498636078,,
1557947788507,1.1687695312500002,-2.9444221597195894,0.17532487367326782,1.5079641723632813,6.129004669189453,998.8258361816406,152.07936096191406,43.663741737695965,,
1557947788571,0.77359130859375,-2.9444221597195894,0.6589054603480846,4.053420867919922,7.040459289550782,998.8258361816406,149.40255737304688,43.663744948678385,,
1557947788638,2.8110044860839847,-2.9444221597195894,1.0388205889929853,3.8272412109375002,10.450068969726564,998.8258361816406,149.40255737304688,43.66375990605016,,
1557947788706,3.4121543884277346,-2.9444221597195894,0.7768675623385062,3.6714152526855472,12.446617126464844,998.8258361816406,147.58546447753906,43.663766667775825,,
1557947788772,3.822002105712891,-2.9444221597195894,0.4282409553553438,2.721790008544922,12.959300994873047,998.8047027587891,145.8003692626953,43.663772467097125,,
1557947788838,4.203408966064453,-2.9444221597195894,0.8283019591506072,1.8899697875976564,9.563462677001954,998.8047027587891,145.8003692626953,43.66378775143923,,
1557947788907,3.8682559204101565,-2.9444221597195894,0.6211863231835852,1.4747332763671877,7.954159240722657,998.8047027587891,145.8003692626953,43.66379452206945,,
1557947788972,3.5738182067871094,-2.9444221597195894,0.1864110089041242,1.7850379943847656,7.902516632080078,998.8047027587891,145.8003692626953,43.6638027161788,,
1557947789038,2.9174331665039066,-2.9444221597195894,0.5047733979740254,1.917063446044922,6.19396957397461,998.8047027587891,147.45816040039062,43.66380860745175,,
1557947789106,2.860701141357422,-2.9444221597195894,0.12033918164171539,2.235601043701172,6.453679504394532,998.8047027587891,148.78436279296875,43.66381343584787,,
1557947789171,2.8996202087402345,-2.9444221597195894,0.08473273005098991,2.1974304199218753,6.839876403808594,998.8047027587891,150.80325317382812,43.66381396165771,,
1557947789238,3.16142578125,-2.9444221597195894,0.28556947268091476,2.4508534240722657,7.837102661132813,998.8047027587891,152.39324951171875,43.66381402966063,,
1557947789307,3.4657429504394535,-2.9444221597195894,0.4795908133616739,3.319347381591797,9.200916595458985,998.8047027587891,155.82501220703125,43.663813390143275,,
1557947789372,4.776417388916016,-2.9444221597195894,0.8517522678594046,3.137026519775391,11.896810455322266,998.8047027587891,159.13812255859375,43.663813915900946,,
1557947789438,5.1536329650878905,-2.9444221597195894,0.6622666718402388,2.9306057739257816,13.660442962646485,998.8047027587891,160.6184844970703,43.66381372780075,,
1557947789506,4.510270843505859,-2.9444221597195894,0.5953176172878167,0.9500743103027344,11.867471466064453,998.8047027587891,160.6184844970703,43.66381534948319,,
1557947789572,3.926185455322266,-2.9444221597195894,0.8205753882138338,1.1404783630371094,8.965755615234375,998.8047027587891,160.6184844970703,43.66381413067417,,
1557947789638,3.3295262145996096,-2.9444221597195894,0.18280149474610063,0.6902146911621094,9.81134719848633,998.8047027587891,155.83456420898438,43.66381337584017,,
1557947789711,2.0182530212402345,-2.9444221597195894,0.8546659786293761,1.505419464111328,6.956184539794922,998.8047027587891,152.81529235839844,43.66381368584584,,
1557947789771,2.06211181640625,-2.9444221597195894,0.3125484223861795,1.4184503173828125,6.484515380859375,998.8026428222656,151.6531524658203,43.66381428904869,,
1557947789839,2.945724334716797,-2.9444221597195894,0.22873085968701973,1.2623249816894533,7.231162719726563,998.8026428222656,151.6531524658203,43.663814266118635,,
1557947789911,4.978197784423829,-2.9444221597195894,0.6996262812317436,1.5878979492187502,5.4513638305664065,998.8026428222656,150.23605346679688,43.66381311183479,,
1557947789971,5.013674011230469,-2.9444221597195894,0.45757325192499193,3.1090347290039064,6.544241180419922,998.8026428222656,147.6280517578125,43.66381521261336,,
1557947790038,6.033802642822266,-2.9444221597195894,0.4488649445580652,3.766018524169922,5.654790802001953,998.8026428222656,145.99359130859375,43.6638143661921,,
1557947790112,6.654711456298829,-2.9444221597195894,0.7628553723719597,1.7895286560058594,3.5377432250976564,998.8026428222656,145.99359130859375,43.66381515234646,,
1557947790172,7.223378906250001,-2.9444221597195894,0.7182803856278619,-0.290994873046875,2.5608746337890627,998.8026428222656,149.34359741210938,43.663813389893626,,
1557947790238,7.452103271484376,-2.9444221597195894,1.302117069253474,-4.106560363769532,0.6033952331542969,998.8026428222656,150.60888671875,43.66381504092869,,
1557947790310,11.493848419189455,-2.9444221597195894,1.2751798165782198,-5.86061279296875,1.761536865234375,998.8026428222656,149.3539581298828,43.663814510426704,,
1557947790371,11.542347564697266,-2.9444221597195894,0.7097426629729687,-7.740104370117188,1.9055374145507813,998.8026428222656,137.7882537841797,43.66381569603733,,
1557947790438,11.070977783203126,-2.9444221597195894,0.1882036398616977,-6.787185974121094,1.173409881591797,998.8026428222656,130.27903747558594,43.66381915647486,,
1557947790510,10.662776641845703,-2.9444221597195894,0.20891983845724824,-6.010151824951172,0.9466314697265625,998.8026428222656,121.491943359375,43.66381812381395,,
1557947790572,10.602601776123047,-2.9444221597195894,0.2008248935160161,-5.693260803222657,0.7720944213867188,998.8026428222656,116.44889831542969,43.66381876800807,,
1557947790638,11.276500396728515,-2.9444221597195894,0.3120379910953979,-4.818479919433594,0.6399192810058594,998.8026428222656,110.701416015625,43.663815348410715,,
1557947790712,11.256741485595704,-2.9444221597195894,0.07257458884338143,-5.273234252929687,0.8607101440429688,998.8026428222656,105.44256591796875,43.66381626018997,,
1557947790771,11.577225036621094,-2.9444221597195894,0.1677318501695738,-5.7067327880859375,0.5134323120117188,998.8014984130859,105.44256591796875,43.66381750394524,,
1557947790839,11.644435272216798,-2.9444221597195894,0.2753399297205685,-6.3759910583496096,1.1298504638671876,998.8014984130859,105.44256591796875,43.66381561270324,,
1557947790910,10.109527130126954,-2.9444221597195894,0.5759127998404848,-4.6078678894042975,0.5291496276855469,998.8014984130859,105.44256591796875,43.66381365960582,,
1557947790971,10.090965728759766,-2.9444221597195894,0.736516565825961,-7.694598999023438,1.8395246887207033,998.8014984130859,107.18231201171875,43.66381303482645,,
1557947791038,9.275012512207033,-2.9444221597195894,0.4120776143612622,-8.276588745117188,2.109862518310547,998.8014984130859,110.61083984375,43.66381672583997,,
1557947791107,8.474776611328126,-2.9444221597195894,0.2862482764419335,-7.634723510742188,1.5883470153808594,998.8014984130859,114.83419036865234,43.66381631157853,,
1557947791172,8.087232513427734,-2.9444221597195894,0.23119843982837365,-7.253765716552735,1.2090357971191408,998.8014984130859,117.45331573486328,43.66381795342388,,
1557947791239,6.368955688476563,-2.9444221597195894,0.4716827947945458,-7.53039047241211,1.2883708190917968,998.8014984130859,120.49945068359375,43.66381413684175,,
1557947791310,5.716761932373047,-2.9444221597195894,0.31076402917903634,-7.839198303222656,0.8927435302734376,998.8014984130859,127.56949615478516,43.663813503904514,,
1557947791372,5.389991455078126,-2.9444221597195894,0.18831834359599986,-7.590116271972657,0.5788462829589844,998.8014984130859,131.27960205078125,43.66381366640047,,
1557947791438,8.205037536621095,-2.9444221597195894,0.8493279585045386,-9.727820892333986,0.4578977966308594,998.8014984130859,129.4554443359375,43.663815872396356,,
1557947791506,8.812773742675782,-2.9444221597195894,0.34326005388964925,-9.21259231567383,1.0271640014648438,998.8014984130859,124.10960388183594,43.66381510257263,,
1557947791571,10.069410552978516,-2.9444221597195894,0.6473320762710245,-7.246730346679688,1.5057188415527345,998.8014984130859,117.1802978515625,43.66381970458839,,
1557947791638,9.226663055419923,-2.9444221597195894,0.27482383053883935,-7.043003997802734,0.62989013671875,998.8014984130859,110.41767883300781,43.663815002069,,
1557947791712,8.231083374023438,-2.9444221597195894,0.609791009839114,-5.057083740234376,0.5691165161132813,998.8014984130859,105.91835021972656,43.6638179744299,,
1557947791772,7.661817169189454,-2.9444221597195894,0.32524529724323387,-4.611610107421876,0.5553451538085937,998.7857055664062,102.18876647949219,43.66381599109704,,
1557947791839,7.376510467529298,-2.9444221597195894,0.1465970663595029,-4.5515849304199225,0.629740447998047,998.7857055664062,104.69027709960938,43.663815818419046,,
1557947791906,7.389832763671875,-2.9444221597195894,0.06942516864716536,-4.416565704345703,0.4742138671875,998.7857055664062,109.22218322753906,43.663816005566474,,
1557947791972,8.568032684326173,-2.9444221597195894,0.40386690659783625,-5.384752349853516,-0.16001724243164064,998.7857055664062,114.90213012695312,43.66381464264426,,
1557947792039,10.035730590820313,-2.9444221597195894,0.5666278991050326,-6.542145538330079,0.37392242431640627,998.7857055664062,124.06952667236328,43.66381625259294,,
1557947792110,10.628946990966798,-2.9444221597195894,0.7729556401008724,-9.09194320678711,-0.042361907958984375,998.7857055664062,130.10755920410156,43.66381543156116,,
1557947792171,9.885443115234375,-2.9444221597195894,0.34743923389470727,-7.226222991943359,0.6652166748046875,998.7857055664062,135.33621215820312,43.66381575641809,,
1557947792239,8.546028442382813,-2.9444221597195894,0.7926317509832561,-5.759123840332031,0.6274951171875001,998.7857055664062,138.9734344482422,43.663816175120516,,
1557947792312,7.445067901611329,-2.9444221597195894,0.5098130943618455,-6.9042425537109375,0.44502456665039064,998.7857055664062,142.7308349609375,43.663814924431925,,
1557947792372,8.852890319824219,-2.9444221597195894,0.3916650354241609,-7.678133239746094,0.2920426940917969,998.7857055664062,146.4488067626953,43.663817856046585,,
1557947792438,7.181915130615235,-2.9444221597195894,0.49093368192663595,-6.190975799560547,0.997375946044922,998.7857055664062,151.34466552734375,43.66381349159536,,
1557947792511,6.644532623291016,-2.9444221597195894,0.38557153670488997,-5.692212982177734,1.755249938964844,998.7857055664062,155.1410675048828,43.66381341573847,,
1557947792572,6.582262115478516,-2.9444221597195894,0.21967689815269512,-5.061574401855469,1.6027171325683593,998.7857055664062,157.9376220703125,43.66381539797687,,
1557947792638,7.322472839355469,-2.9444221597195894,0.47398552493862095,-4.051474914550782,0.30296997070312504,998.7857055664062,159.0167694091797,43.66381675653191,,
1557947792706,7.848029937744141,-2.9444221597195894,0.32926425135365617,-3.2783326721191406,0.319735107421875,998.7857055664062,159.0167694091797,43.66381617601387,,
1557947792772,8.234226837158204,-2.9444221597195894,0.2646846127813132,-2.8753706359863282,-0.20043319702148438,998.7636566162109,159.0167694091797,43.66381749017866,,
1557947792838,8.023165740966798,-2.9444221597195894,0.12855736830602574,-3.5377432250976564,-0.17393829345703127,998.7636566162109,159.0167694091797,43.663815063630736,,
1557947792907,8.674012298583985,-2.9444221597195894,0.2181162812065997,-3.7214112854003907,-0.6590794372558594,998.7636566162109,159.0167694091797,43.66381701013815,,
1557947792973,9.853709106445313,-2.9444221597195894,0.8847227827403903,-6.913972320556641,-0.3183879089355469,998.7636566162109,159.0167694091797,43.663813976516096,,
1557947793039,8.531358947753906,-2.9444221597195894,0.47477120402748013,-6.018085327148438,1.2487033081054688,998.7636566162109,159.0167694091797,43.66381658791191,,
1557947793109,8.779393157958985,-2.9444221597195894,0.39115618615028114,-7.413782958984376,1.5883470153808594,998.7636566162109,162.11729431152344,43.66381538874247,,
1557947793171,7.785759429931641,-2.9444221597195894,0.466028977007446,-8.141868896484375,2.5592280578613282,998.7636566162109,164.16188049316406,43.6638117950457,,
1557947793239,6.251300354003907,-2.9444221597195894,0.5375634611244244,-6.612050170898438,2.7795698547363283,998.7636566162109,169.34848022460938,43.66381954900819,,
1557947793306,6.15085922241211,-2.9444221597195894,0.2850171914522729,-6.026018829345704,2.7654991149902344,998.7636566162109,177.38377380371094,43.663815947539796,,
1557947793371,6.845714263916016,-2.9444221597195894,0.2472848509536445,-6.2614791870117195,1.9143690490722658,998.7636566162109,183.66903686523438,43.6638149542327,,
1557947793438,7.883655853271485,-2.9444221597195894,0.29842299778833203,-6.251599731445313,2.329156494140625,998.7636566162109,188.93115234375,43.66381302848736,,
1557947793506,8.503367156982423,-2.9444221597195894,0.26769239360928804,-6.2580363464355475,1.718276824951172,998.7636566162109,191.58843994140625,43.66381249436702,,
1557947793572,10.229876861572267,-2.9444221597195894,0.6956343917993202,-8.000263366699219,0.918489990234375,998.7636566162109,192.9570770263672,43.66381319009749,,
1557947793638,10.049352264404297,-2.9444221597195894,0.3881168726002423,-6.115981750488282,0.6875202941894532,998.7636566162109,196.19541931152344,43.66381442679927,,
1557947793711,9.599088592529297,-2.9444221597195894,0.4759529131991896,-4.6114604187011725,0.7750881958007813,998.7636566162109,196.19541931152344,43.663814150915556,,
1557947793771,10.930869140625001,-2.9444221597195894,0.5704650099732248,-6.886279907226563,0.14699432373046875,998.7474060058594,198.50360107421875,43.663814834018964,,
1557947793838,9.807455291748047,-2.9444221597195894,0.2588055158564881,-6.695875854492188,0.889749755859375,998.7474060058594,205.218994140625,43.66381498537032,,
1557947793910,9.024732971191407,-2.9444221597195894,0.3057765869203219,-7.374564514160157,0.8336164855957031,998.7474060058594,215.45895385742188,43.66381427702612,,
1557947793972,7.237150268554688,-2.9444221597195894,0.5124946371231083,-7.414830780029297,0.8764274597167969,998.7474060058594,229.4169464111328,43.66381347591347,,
1557947794038,5.149741058349609,-2.9444221597195894,0.6805860519031781,-6.5889981079101565,1.1567944335937501,998.7474060058594,244.15451049804688,43.66381512633914,,
1557947794106,4.749174041748047,-2.9444221597195894,0.27564136464570127,-6.525829467773438,0.8602610778808594,998.7474060058594,250.2890167236328,43.66381544589403,,
1557947794172,6.461912384033203,-2.9444221597195894,0.5784395392323264,-8.370892639160157,0.6397695922851563,998.7474060058594,244.17335510253906,43.6638166441703,,
1557947794239,9.426048431396485,-2.9444221597195894,1.176299725486341,-11.229348449707032,1.1044033813476564,998.7474060058594,238.3778839111328,43.66381304809065,,
1557947794306,9.076225891113282,-2.9444221597195894,0.6299313825675641,-8.35143310546875,2.386187896728516,998.7474060058594,233.25686645507812,43.6638155187379,,
1557947794372,9.621541900634766,-2.9444221597195894,0.6186168649719617,-6.500831451416016,1.7357904052734376,998.7474060058594,229.94308471679688,43.663815941223135,,
1557947794438,6.4605651855468755,-2.9444221597195894,0.9567804182701833,-4.7575566101074225,1.3311817932128907,998.7474060058594,231.72369384765625,43.66381514740958,,
1557947794507,6.207291870117188,-2.9444221597195894,0.45489099373169345,-3.9712417602539065,0.7952961730957032,998.7474060058594,235.16268920898438,43.6638147420148,,
1557947794572,6.661896514892579,-2.9444221597195894,0.15676888179468412,-4.884043579101562,0.7972421264648438,998.7474060058594,239.70001220703125,43.66381702314679,,
1557947794638,7.188800811767578,-2.9444221597195894,0.19456897522213543,-5.179379425048828,0.5550457763671875,998.7474060058594,247.04583740234375,43.66381360666095,,
1557947794710,7.873926086425782,-2.9444221597195894,0.3830259527156805,-6.451434173583984,0.7756869506835938,998.7474060058594,254.3678741455078,43.66381315344595,,
1557947794773,8.940757598876953,-2.9444221597195894,0.5805938246335648,-7.933651885986328,1.1169772338867188,998.7346649169922,259.8712158203125,43.663817039406794,,
1557947794838,10.843450927734375,-2.9444221597195894,0.6484318219475346,-8.79600860595703,0.9767189025878906,998.7346649169922,261.4930114746094,43.66381706509699,,
1557947794906,8.681197357177735,-2.9444221597195894,0.9881700124732317,-4.910239105224609,0.33185989379882813,998.7346649169922,259.82073974609375,43.663813681073194,,
1557947794972,9.44311294555664,-2.9444221597195894,0.2777024570926203,-6.8285000610351565,0.7015910339355469,998.7346649169922,256.1513671875,43.663814730176945,,
1557947795038,9.551337890625,-2.9444221597195894,0.11769548347294521,-6.365662536621094,1.0246192932128906,998.7346649169922,249.7011260986328,43.66381416471589,,
1557947795110,7.659871215820313,-2.9444221597195894,0.5100210760834056,-6.46894775390625,1.8065931701660156,998.7346649169922,246.45364379882812,43.66381548851753,,
1557947795174,5.568270721435547,-2.9444221597195894,0.6437791366706914,-6.242618408203126,1.857187957763672,998.7346649169922,250.183349609375,43.66381688679466,,
1557947795238,4.651576995849609,-2.9444221597195894,0.46512559093575245,-7.317383422851563,1.7579443359375,998.7346649169922,263.3963317871094,43.66381668873756,,
1557947795310,5.129682769775391,-2.9444221597195894,0.3613867842988805,-8.453221435546876,1.3835728454589844,998.7346649169922,269.55438232421875,43.663811996382826,,
1557947795373,7.237150268554688,-2.9444221597195894,0.5833331957564227,-9.053323516845703,1.5780184936523438,998.7346649169922,266.1695556640625,43.66381715720759,,
1557947795438,8.93911102294922,-2.9444221597195894,0.8090564777298233,-11.120824127197267,1.141077117919922,998.7346649169922,259.2104797363281,43.6638153564789,,
1557947795510,7.65732650756836,-2.9444221597195894,0.19947127061864306,-9.62992446899414,1.5368540954589844,998.7346649169922,255.62384033203125,43.66381576309461,,
1557947795572,8.245004425048828,-2.9444221597195894,1.2601155847872898,-5.661826171875,1.0660830688476564,998.7346649169922,247.78843688964844,43.663813686044065,,
1557947795638,8.191715240478516,-2.9444221597195894,0.3948909542926039,-5.9374031066894535,-0.07514373779296875,998.7346649169922,241.30877685546875,43.66381287867867,,
1557947795710,6.841373291015626,-2.9444221597195894,0.5143443535649631,-4.643643493652344,0.5122348022460937,998.7346649169922,240.2159423828125,43.66381401342646,,
1557947795772,6.894213409423829,-2.9444221597195894,0.20674841112147385,-4.385580139160156,0.00508941650390625,998.7346649169922,241.80345153808594,43.66381374924208,,
1557947795838,7.251819763183594,-2.9444221597195894,0.11599585819606159,-4.879403228759766,-0.03308120727539063,998.7155151367188,247.83432006835938,43.663813144695176,,
1557947795906,7.587421875,-2.9444221597195894,0.15092584668185394,-5.219046936035157,0.14385086059570312,998.7155151367188,252.94189453125,43.66381833566227,,
1557947795973,8.449928283691406,-2.9444221597195894,0.38534359566283977,-6.311175842285157,0.2136058044433594,998.7155151367188,257.8587341308594,43.66381513699752,,
1557947796038,9.507928161621095,-2.9444221597195894,0.4265546390433521,-7.549999694824219,0.9578581237792969,998.7155151367188,262.96185302734375,43.663813899721156,,
1557947796110,9.900861053466798,-2.9444221597195894,0.5340142477030024,-8.763526153564454,1.085991668701172,998.7155151367188,262.96185302734375,43.66381729316311,,
1557947796171,8.8855224609375,-2.9444221597195894,0.8150852150635661,-5.127886505126954,1.1168275451660157,998.7155151367188,259.9922790527344,43.663810568041804,,
1557947796239,9.53307586669922,-2.9444221597195894,0.31889309377110775,-7.076534271240234,1.377285919189453,998.7155151367188,247.55770874023438,43.66381318860182,,
1557947796306,9.200018463134766,-2.9444221597195894,0.13689861128384892,-6.7475184631347656,1.8056950378417969,998.7155151367188,242.88909912109375,43.663815726726284,,
1557947796372,7.70477783203125,-2.9444221597195894,0.41370625027189084,-6.196514282226563,1.5367044067382813,998.7155151367188,237.15658569335938,43.66381520998402,,
1557947796439,5.619763641357422,-2.9444221597195894,0.6242406280520867,-5.9989251708984375,1.657203826904297,998.7155151367188,236.48912048339844,43.66381776060931,,
1557947796511,4.9810418701171875,-2.9444221597195894,0.4217687637897829,-7.207362213134766,1.6616944885253908,998.7155151367188,238.09161376953125,43.663815163469444,,
1557947796572,5.158123626708985,-2.9444221597195894,0.28042535673706154,-8.031099243164062,1.456022186279297,998.7155151367188,245.7647705078125,43.66381518131298,,
1557947796638,7.427105255126953,-2.9444221597195894,0.6118399023260354,-8.722810821533203,1.7330960083007814,998.7155151367188,245.7647705078125,43.66381544005149,,
1557947796710,9.348509674072266,-2.9444221597195894,0.9962521085623134,-11.597283325195313,1.541045379638672,998.7155151367188,244.23245239257812,43.66381581239275,,
1557947796771,7.613318023681641,-2.9444221597195894,0.2794225530278849,-10.870843963623047,1.627266082763672,998.7155151367188,241.99111938476562,43.66381490521235,,
1557947796838,7.357799377441407,-2.9444221597195894,1.4469566234735525,-5.320386199951172,0.016465759277343752,998.6943817138672,235.82664489746094,43.663815048549935,,
1557947796906,7.253915405273438,-2.9444221597195894,0.26625493773104697,-5.846991119384766,-0.16914825439453127,998.6943817138672,229.2032470703125,43.663813645999994,,
1557947796971,6.557713165283204,-2.9444221597195894,0.38142480575434484,-4.964725799560547,0.7214996337890626,998.6943817138672,229.2032470703125,43.66381850159753,,
1557947797038,7.047494659423829,-2.9444221597195894,0.2976231864149551,-4.301305389404297,-0.13367202758789062,998.6943817138672,229.2032470703125,43.66381793901274,,
1557947797106,7.069049835205078,-2.9444221597195894,0.1554425185392283,-5.145400085449219,0.10777587890625001,998.6943817138672,229.2032470703125,43.66381353942678,,
1557947797173,7.295977935791016,-2.9444221597195894,0.1775937740198477,-5.490881652832032,0.52929931640625,998.6943817138672,231.34786987304688,43.66381337636499,,
1557947797238,8.319250030517578,-2.9444221597195894,0.44008600794978975,-6.741830291748047,0.5851332092285156,998.6943817138672,233.05413818359375,43.66381430057021,,
1557947797311,9.480235748291015,-2.9444221597195894,0.5366360726189083,-7.960296478271485,0.8824150085449219,998.6943817138672,236.713134765625,43.66381612845174,,
1557947797371,10.25203079223633,-2.9444221597195894,0.5572119352213285,-9.454489288330079,1.1701167297363282,998.6943817138672,237.7544403076172,43.66381500150963,,
1557947797439,8.227490844726564,-2.9444221597195894,1.0866277439714687,-5.00124984741211,1.1033555603027345,998.6943817138672,233.6199951171875,43.66381814665613,,
1557947797506,9.655371551513673,-2.9444221597195894,0.3311564500241022,-6.618037719726563,0.47720764160156254,998.6943817138672,231.9969024658203,43.663816757845886,,
1557947797571,9.420360260009765,-2.9444221597195894,0.08553853724994133,-6.533762969970703,0.9665400695800782,998.6943817138672,228.45779418945312,43.66381430275954,,
1557947797638,7.843389587402344,-2.9444221597195894,0.48725685833114274,-7.189399566650391,1.8149757385253906,998.6943817138672,227.39955139160156,43.66381307391385,,
1557947797710,5.6874229431152346,-2.9444221597195894,0.6685275846791086,-6.226901092529297,1.4028826904296876,998.6943817138672,238.56016540527344,43.663816270716346,,
1557947797772,4.805606689453125,-2.9444221597195894,0.3866787952545066,-6.450835418701172,1.7633331298828125,998.6943817138672,242.69070434570312,43.663813363415386,,
1557947797838,4.500990142822266,-2.9444221597195894,0.35258621900803955,-7.633076934814453,2.0194505310058597,998.6759185791016,262.6091613769531,43.663814789813344,,
1557947797906,6.172863464355469,-2.9444221597195894,0.4379943062325611,-8.141569519042969,2.3472688293457034,998.6759185791016,264.4712219238281,43.66381345691366,,
1557947797973,8.733438720703125,-2.9444221597195894,0.9536132043972745,-10.375224609375001,2.2026695251464843,998.6759185791016,257.1944885253906,43.66381529019764,,
1557947798038,9.143136749267578,-2.9444221597195894,0.7001528869449682,-12.297377471923829,1.8526972961425783,998.6759185791016,254.94384765625,43.663817668749914,,
1557947798110,7.049141235351563,-2.9444221597195894,1.5919577283071151,-5.615422668457032,1.1139834594726563,998.6759185791016,252.45033264160156,43.6638159411803,,
1557947798171,7.703280944824219,-2.9444221597195894,0.6017290126152682,-5.424419860839844,-0.3673361206054688,998.6759185791016,245.42091369628906,43.66381473021136,,
1557947798239,6.208938446044923,-2.9444221597195894,0.3707115888559497,-5.518125,0.11750564575195313,998.6759185791016,242.972900390625,43.663812421549444,,
1557947798310,6.549031219482422,-2.9444221597195894,0.23957829068088374,-4.6942382812500005,0.41074584960937505,998.6759185791016,246.81817626953125,43.66381237593137,,
1557947798371,6.88373519897461,-2.9444221597195894,0.28050706596621716,-4.222569122314454,-0.4805007934570313,998.6759185791016,249.5380096435547,43.66381273146908,,
1557947798439,7.792345733642579,-2.9444221597195894,0.4936486015961446,-5.985902252197266,0.34982254028320314,998.6759185791016,252.92738342285156,39.066075713451184,,
1557947798511,7.85326904296875,-2.9444221597195894,0.2987107594837976,-6.772366790771485,0.923280029296875,998.6759185791016,256.7080078125,39.06608617159607,,
1557947798572,8.57222396850586,-2.9444221597195894,0.3490835946643267,-7.239395599365235,1.3367202758789063,998.6759185791016,263.336669921875,39.06609637382889,,
1557947798639,10.847642211914064,-2.9444221597195894,0.7458675665875204,-8.678203582763672,1.1835887145996093,998.6759185791016,268.889404296875,39.06610511135051,,
1557947798710,10.030641174316406,-2.9444221597195894,0.9554268067968139,-4.432881774902344,0.9894424438476563,998.6759185791016,267.5748596191406,39.066115127074646,,
1557947798771,10.405162353515626,-2.9444221597195894,0.06568040129086679,-5.9673408508300785,1.2600796508789063,998.6759185791016,270.621826171875,39.0661202644202,,
1557947798839,10.741961975097658,-2.9444221597195894,0.22769436733862383,-6.034700775146485,1.489552459716797,998.6540985107422,272.28173828125,39.06612770970076,,
1557947798911,8.661887512207032,-2.9444221597195894,0.6144580585592043,-6.739285583496094,2.5722509765625,998.6540985107422,277.3177795410156,39.06614571832939,,
1557947798972,11.449989624023438,-2.9444221597195894,0.8420373835909496,-4.230203247070313,2.531835021972656,998.6540985107422,283.0436706542969,39.06615356794309,,
1557947799039,11.171867980957032,-2.9444221597195894,0.513034116542771,-4.7644422912597655,4.4985951232910155,998.6540985107422,296.8825378417969,39.066157219592384,,
1557947799110,8.975335693359375,-2.9444221597195894,0.8497234434053101,-4.462520141601563,6.627318420410156,998.6540985107422,316.58380126953125,39.06615847336178,,
1557947799172,7.120243377685547,-2.9444221597195894,0.7628798999912378,-3.1916629028320314,7.308402099609375,998.6540985107422,332.3674621582031,39.066157506381884,,
1557947799238,4.589605865478516,-2.9444221597195894,0.9234930278013603,-1.7784516906738281,7.868537292480469,998.6540985107422,339.0203857421875,39.066158457211515,,
1557947799310,4.23005355834961,-2.9444221597195894,0.5041677761375851,-0.16959732055664065,7.931107177734376,998.6540985107422,337.4924011230469,39.06615485261458,,
1557947799371,3.0273046875,-2.9444221597195894,0.7070603857486032,1.4171031188964844,7.831264801025391,998.6540985107422,335.428955078125,39.066157583142456,,
1557947799439,3.097508697509766,-2.9444221597195894,0.2026473343697149,1.5581098937988282,7.715705108642578,998.6540985107422,334.15966796875,39.066156237528446,,
1557947799511,2.5737478637695315,-2.9444221597195894,0.3151742191834701,2.4662713623046875,7.972271575927735,998.6540985107422,334.15966796875,39.06615509865814,,
1557947799571,1.7688716125488282,-2.9444221597195894,0.3038697898733571,2.933749237060547,8.007149047851563,998.6540985107422,335.59039306640625,39.066158740473554,,
1557947799639,1.6690292358398438,-2.9444221597195894,0.32864757354595764,2.888243865966797,6.721921691894532,998.6540985107422,337.9191589355469,39.06615742595885,,
1557947799710,1.0072554016113282,-2.9444221597195894,0.2508138389886156,3.5076557922363283,7.181615753173828,998.6540985107422,340.78955078125,39.06615675919287,,
1557947799771,1.009650421142578,-2.9444221597195894,0.21260887096276934,3.9809715270996096,6.61309799194336,998.6540985107422,342.4910888671875,39.066155856917504,,
1557947799839,1.6982185363769533,-2.9444221597195894,0.6189457859097031,4.716691589355469,8.963360595703126,998.6260986328125,346.9069519042969,39.066155211325004,,
1557947799910,1.8323396301269532,-2.9444221597195894,0.6051025406502596,5.040468292236328,10.523865509033204,998.6260986328125,350.7082214355469,39.06615761024106,,
1557947799971,1.2316387939453126,-2.9444221597195894,0.1836886436719145,4.894372100830078,10.675350494384766,998.6260986328125,352.07159423828125,39.066154777295274,,
1557947800038,-0.8578660583496094,-2.9444221597195894,1.3022268926563965,1.319506072998047,13.61374008178711,998.6260986328125,356.1525573730469,39.066158022507736,,
1557947800111,0.8228388977050781,-2.9444221597195894,0.7284646302144722,2.89078857421875,10.246043243408204,998.6260986328125,356.1525573730469,39.06615839113295,,
1557947800171,0.3406915283203125,-2.9444221597195894,0.3366689770306173,1.4121633911132814,10.65394500732422,998.6260986328125,357.44976806640625,39.06615689901064,,
1557947800239,0.21480331420898438,-2.9444221597195894,0.49309026324191807,1.991159362792969,8.744216308593751,998.6260986328125,359.4127197265625,32.92883902869797,,
1557947800308,-0.09819580078125001,-2.9444221597195894,0.3443794740555167,2.083367614746094,7.977360992431641,998.6260986328125,1.4492509365081787,32.92883999829991,,
1557947800372,0.326920166015625,-2.9444221597195894,0.3600918154330946,2.905009002685547,7.204817504882813,998.6260986328125,3.6392688751220703,32.928841510928805,,
1557947800439,0.255069580078125,-2.9444221597195894,0.17762516352606605,3.310665435791016,7.806715850830079,998.6260986328125,3.6392688751220703,32.928841526435335,,
1557947800512,0.4528083801269531,-2.9444221597195894,0.21574943149959286,3.958667907714844,7.962392120361328,998.6260986328125,5.502667427062988,32.92883881344742,,
1557947800572,0.49052993774414066,-2.9444221597195894,0.18811656864155776,4.242627410888672,8.51998260498047,998.6260986328125,9.946277618408203,32.9288425397671,,
1557947800639,0.5442681884765626,-2.9444221597195894,0.12597596642913367,4.079766082763672,8.852890319824219,998.6260986328125,12.83055305480957,32.92883865456219,,
1557947800711,0.8517288208007813,-2.9444221597195894,0.16250493119779508,4.115990753173828,9.284143524169922,998.6260986328125,12.83055305480957,32.92884048497392,,
1557947800772,1.2078382873535156,-2.9444221597195894,0.17153193434798406,3.692970428466797,9.469757537841797,998.6260986328125,15.7876558303833,32.9288410484231,,
1557947800838,2.5334815979003906,-2.9444221597195894,0.6775188844099802,2.5906626892089846,11.345506896972656,998.5936737060547,20.968360900878906,32.928839121453706,,
1557947800910,2.555036773681641,-2.9444221597195894,0.48845694531406836,1.887125701904297,9.224567413330078,998.5936737060547,26.149044036865234,32.92884042025842,,
1557947800971,2.3725662231445312,-2.9444221597195894,0.08702755910230091,2.3710693359375,9.388775939941407,998.5936737060547,31.15965461730957,32.92884154330904,,
1557947801038,1.8974542236328127,-2.9444221597195894,0.14149061626129647,2.501448211669922,9.644144897460938,998.5936737060547,35.1525993347168,32.928841250799785,,
1557947801110,2.0243902587890625,-2.9444221597195894,0.45108415463624585,3.6220179748535157,8.220006408691408,998.5936737060547,39.782188415527344,32.928841256071685,,
1557947801173,1.8315911865234376,-2.9444221597195894,0.2558485475964377,4.292324066162109,8.173752593994141,998.5936737060547,44.370277404785156,32.928841897639764,,
1557947801239,1.5534695434570314,-2.9444221597195894,0.4242175849344218,5.447322235107422,9.254355468750001,998.5936737060547,51.61881637573242,32.928842208872766,,
1557947801311,1.4894027709960938,-2.9444221597195894,0.2842512065059869,4.203109588623047,9.781110076904298,998.5936737060547,56.033447265625,32.928840800741206,,
1557947801372,1.2754975891113283,-2.9444221597195894,0.3045962592834919,3.472628631591797,8.938362579345704,998.5936737060547,61.40999221801758,32.9288408817561,,
1557947801439,0.7069798278808594,-2.9444221597195894,0.3625304493863943,2.4860302734375,9.52304672241211,998.5936737060547,68.946533203125,44.41303788428392,,
1557947801511,1.8362315368652344,-2.9444221597195894,0.5097758156994768,1.77470947265625,10.891950073242189,998.5936737060547,74.12676239013672,44.41304386902959,,
1557947801572,2.920576629638672,-2.9444221597195894,0.8233876904752685,3.3462913513183596,7.811805267333985,998.5936737060547,77.86676788330078,44.413052228944956,,
1557947801639,2.6577232360839846,-2.9444221597195894,0.5973630658030579,2.116149444580078,10.701695709228517,998.5936737060547,83.89839935302734,44.41306356673222,,
1557947801711,1.4552737426757814,-2.9444221597195894,0.3349119356121554,1.6868421936035156,10.44947021484375,998.5936737060547,86.6895980834961,44.41306874237668,,
1557947801772,-1.2674143981933594,-2.9444221597195894,0.7858676730124339,1.169967041015625,10.807825012207031,998.5936737060547,94.62237548828125,44.41308091459122,,
1557947801839,-1.744622039794922,-2.9444221597195894,0.49603663682602034,2.831960906982422,10.196346588134766,998.5936737060547,99.80024719238281,44.4130901426608,,
1557947801907,-1.139879608154297,-2.9444221597195894,0.4055185235064979,3.8778359985351565,9.58441909790039,998.5545349121094,107.49835205078125,42.191695629074275,,
1557947801972,-0.45580215454101564,-2.9444221597195894,0.3085349098808022,4.379442901611329,9.303004302978517,998.5545349121094,109.9755859375,42.19169240209422,,
1557947802039,-0.49786468505859377,-2.9444221597195894,0.26773410563226324,4.934937744140625,8.689130859375,998.5545349121094,111.08853912353516,42.19169627575812,,
1557947802111,-0.7476951599121094,-2.9444221597195894,0.1148145317719549,5.138364715576172,8.966354370117188,998.5545349121094,111.08853912353516,42.191696753647435,,
1557947802171,-0.23426284790039065,-2.9444221597195894,0.28221828173164526,5.712271270751954,9.723629608154297,998.5545349121094,113.28529357910156,42.1916942800844,,
1557947802239,0.7258406066894532,-2.9444221597195894,0.5400845901856138,4.208947448730469,10.84315155029297,998.5545349121094,116.66354370117188,42.1916952027177,,
1557947802311,1.9205062866210938,-2.9444221597195894,0.4408405227215079,3.5628909301757816,10.426867218017579,998.5545349121094,119.5821762084961,42.19169353855393,,
1557947802371,2.5670118713378907,-2.9444221597195894,0.4522578652968324,2.312091979980469,10.550809478759767,998.5545349121094,120.70945739746094,42.191694322819444,,
1557947802438,2.385589141845703,-2.9444221597195894,0.5323317264815403,2.2947280883789065,8.433462524414063,998.5545349121094,123.0482177734375,42.19169470288954,,
1557947802510,1.7723144531250001,-2.9444221597195894,0.4791690380153485,2.5909620666503907,7.145391082763672,998.5545349121094,125.54667663574219,42.19169517320151,,
1557947802572,1.7452207946777345,-2.9444221597195894,0.08174454703708844,2.792443084716797,7.711813201904297,998.5545349121094,129.5303955078125,42.191694938631315,,
1557947802638,1.272803192138672,-2.9444221597195894,0.20209712879288624,2.237996063232422,7.970625,998.5545349121094,131.8162384033203,42.19169356715165,,
1557947802711,1.084794158935547,-2.9444221597195894,0.30295731401649456,3.6347415161132814,8.96021713256836,998.5545349121094,135.18328857421875,41.704602700215744,,
1557947802771,0.7000941467285157,-2.9444221597195894,0.2912404207590123,4.328848114013672,9.3836865234375,998.5545349121094,138.34793090820312,41.70460153653709,,
1557947802839,-0.07544311523437501,-2.9444221597195894,0.5931037376483634,4.298311614990235,11.40313705444336,998.5545349121094,143.49595642089844,41.704604343727915,,
1557947802910,-1.5829582214355469,-2.9444221597195894,0.5664696226255951,2.8229795837402345,11.15450408935547,998.5069274902344,144.5932159423828,41.704603157902774,,
1557947802972,-0.5828878784179687,-2.9444221597195894,0.4814894522132241,2.1109103393554687,11.953392791748048,998.5069274902344,145.90211486816406,41.704603317179384,,
1557947803039,-0.5466632080078125,-2.9444221597195894,0.29840773881308097,2.3408322143554687,10.615774383544922,998.5069274902344,148.26104736328125,41.70460381361237,,
1557947803111,-0.6497987365722656,-2.9444221597195894,0.7653268994665334,2.2610481262207034,7.834857330322266,998.5069274902344,146.5484161376953,41.704604365865244,,
1557947803171,-0.22558090209960938,-2.9444221597195894,0.6781120859601768,2.4517515563964847,5.92572738647461,998.5069274902344,143.60107421875,41.704603060553104,,
1557947803238,0.24054977416992188,-2.9444221597195894,0.22204385505680316,3.0555958557128906,6.794371032714844,998.5069274902344,142.3143310546875,41.70460292532019,,
1557947803307,0.9452842712402344,-2.9444221597195894,0.2630821146985191,2.8788134765625,7.368876342773438,998.5069274902344,142.3143310546875,41.70460169634248,,
1557947803371,0.8361611938476563,-2.9444221597195894,0.5022433067964692,3.349434814453125,9.163943481445314,998.5069274902344,143.3695068359375,41.70460143387265,,
1557947803439,2.2872436523437503,-2.9444221597195894,0.7953154027398367,2.464325408935547,11.387120361328126,998.5069274902344,143.3695068359375,39.54585017866439,,
1557947803511,3.299887847900391,-2.9444221597195894,0.3649676433416925,2.196382598876953,10.608589324951172,998.5069274902344,142.07611083984375,39.54585693171562,,
1557947803573,4.041445770263672,-2.9444221597195894,0.35992687993883865,1.417552185058594,10.937455444335939,998.5069274902344,142.07611083984375,39.54586472429139,,
1557947803638,5.182822265625,-2.9444221597195894,0.3974469226546196,1.2702584838867188,11.488459625244142,998.5069274902344,145.32846069335938,39.545873977272215,,
1557947803707,3.546425170898438,-2.9444221597195894,0.9809202227185112,1.5661930847167969,7.532486114501953,998.5069274902344,145.32846069335938,40.37196439358018,,
1557947803771,3.720213775634766,-2.9444221597195894,0.25930141352318303,1.7706678771972657,7.558382263183594,998.5069274902344,146.99427795410156,40.37196501287069,,
1557947803838,3.5682797241210937,-2.9444221597195894,0.17935273605257057,1.8794915771484375,7.135361938476563,998.5069274902344,148.92245483398438,40.37196632373212,,
1557947803910,3.8202058410644533,-2.9444221597195894,0.13811869627483597,1.7931211853027345,6.781198425292969,998.4639739990234,148.92245483398438,40.37196361620081,,
1557947803973,3.806284790039063,-2.9444221597195894,0.178559954393968,2.082170104980469,7.569010162353516,998.4639739990234,150.68580627441406,40.37196521104172,,
1557947804039,4.059857482910156,-2.9444221597195894,0.44635940449808786,2.428400115966797,9.12113250732422,998.4639739990234,153.3946075439453,40.37196381315479,,
1557947804110,4.044140167236328,-2.9444221597195894,0.5132310447738084,2.7174490356445316,10.706336059570313,998.4639739990234,154.46522521972656,40.37196597785851,,
1557947804172,3.4971775817871094,-2.9444221597195894,0.29121981048243134,3.070265350341797,11.134296112060547,998.4639739990234,154.46522521972656,40.3719628593987,,
1557947804239,4.803511047363282,-2.9444221597195894,0.7466166269308676,1.9209553527832033,13.444891204833985,998.4639739990234,154.46522521972656,40.371962964175324,,
1557947804310,4.692741394042969,-2.9444221597195894,0.5502943407558498,1.5495776367187502,10.707982635498048,998.4639739990234,154.46522521972656,40.37196691630152,,
1557947804373,4.4634182739257815,-2.9444221597195894,0.8126145647081091,2.501298522949219,8.086633758544922,998.4639739990234,151.44168090820312,40.37196563609497,,
1557947804438,4.999004516601563,-2.9444221597195894,0.5466402631035969,2.5487498474121093,6.756499786376954,998.4639739990234,150.25917053222656,40.37196483167646,,
1557947804510,2.271975402832031,-2.9444221597195894,1.1292718394914485,2.621947631835938,3.5976187133789064,998.4639739990234,148.53335571289062,40.371966199265096,,
1557947804572,3.370690612792969,-2.9444221597195894,0.34208286325624876,1.999691619873047,3.368295593261719,998.4639739990234,144.39019775390625,40.37196450095823,,
1557947804639,4.686903533935547,-2.9444221597195894,0.48126664656301793,1.4994319152832032,2.5393194580078124,998.4639739990234,144.39019775390625,40.37196469547069,,
1557947804711,7.604037322998047,-2.9444221597195894,0.9628808464982732,-0.3626957702636719,2.951262817382813,998.4639739990234,145.71957397460938,40.371965877851444,,
1557947804772,10.671009521484375,-2.9444221597195894,1.1551370264610066,-2.3334974670410156,2.574945373535156,998.4639739990234,144.22665405273438,40.37196650019894,,
1557947804839,13.191468200683595,-2.9444221597195894,1.2032170670470461,-5.026098175048828,2.7132577514648437,998.4639739990234,135.83937072753906,40.37196478727878,,
1557947804911,12.30605941772461,-2.9444221597195894,0.5826486955303151,-4.764142913818359,0.4393363952636719,998.4389495849609,129.8506622314453,40.37196511582431,,
1557947804972,10.448721771240235,-2.9444221597195894,0.621417071046473,-6.02631820678711,0.14025833129882814,998.4389495849609,120.35697174072266,40.371968264642646,,
1557947805039,9.783355407714843,-2.9444221597195894,0.446772255315338,-7.059469757080079,0.3489244079589844,998.4389495849609,113.35021209716797,40.3719665285966,,
1557947805107,9.164093170166016,-2.9444221597195894,0.4035897386842068,-5.405110015869141,0.06616241455078126,998.4389495849609,106.66710662841797,40.37196805949625,,
1557947805171,8.877888336181641,-2.9444221597195894,0.2543038554452904,-4.856949920654297,0.0544866943359375,998.4389495849609,102.66360473632812,40.37196774025061,,
1557947805239,8.809480590820312,-2.9444221597195894,0.15166813021609016,-4.800367584228516,0.5788462829589844,998.4389495849609,101.3175048828125,40.37196570189334,,
1557947805310,8.846603393554688,-2.9444221597195894,0.12688317338373253,-5.375321960449219,0.4890330505371094,998.4389495849609,101.3175048828125,40.37196682006513,,
1557947805372,9.373507690429689,-2.9444221597195894,0.29032021744590225,-6.281687164306641,0.3950285339355469,998.4389495849609,103.67793273925781,40.371965287357746,,
1557947805439,10.601703643798828,-2.9444221597195894,0.743508839946608,-8.653055877685548,0.7039860534667969,998.4389495849609,106.38421630859375,40.37196707118644,,
1557947805512,9.10436737060547,-2.9444221597195894,0.7065166941943878,-5.420527954101563,0.5077441406250001,998.4389495849609,107.5064926147461,40.37196503950533,,
1557947805573,8.27763656616211,-2.9444221597195894,0.2810557873522031,-6.504873046875001,0.6734495544433594,998.4389495849609,104.5737075805664,40.37196744527387,,
1557947805639,8.302784271240235,-2.9444221597195894,0.3347807258717522,-7.360643463134766,0.8306227111816407,998.4389495849609,101.71672821044922,40.37196632456345,,
1557947805710,8.0089453125,-2.9444221597195894,0.17122121211151203,-6.470294952392578,0.9313632202148437,998.4389495849609,97.77181243896484,40.37196354668996,,
1557947805772,6.686445465087891,-2.9444221597195894,0.3928462908085297,-5.969286804199219,1.146166534423828,998.4389495849609,94.84398651123047,40.371967813043035,,
1557947805838,5.63069091796875,-2.9444221597195894,0.3771586306431676,-6.43541748046875,1.5283218383789063,998.4389495849609,94.84398651123047,40.37196641003335,,
1557947805911,5.466781768798828,-2.9444221597195894,0.13612310713991194,-6.394851837158203,1.2472064208984375,998.4226989746094,94.84398651123047,40.37196643146711,,
1557947805972,6.25863510131836,-2.9444221597195894,0.41340200839617974,-7.81734375,0.7936495971679688,998.4226989746094,94.84398651123047,40.37196467424289,,
1557947806039,8.256530456542968,-2.9444221597195894,0.6429191628392544,-8.83043701171875,0.6878196716308594,998.4226989746094,94.84398651123047,40.37196658021533,,
1557947806111,10.007439422607423,-2.9444221597195894,0.983142168182788,-11.628119201660157,0.15328125,998.4226989746094,94.84398651123047,40.37196713909417,,
1557947806172,8.365952911376954,-2.9444221597195894,0.6393160435129146,-8.559650115966797,0.730331268310547,998.4226989746094,93.52544403076172,40.37196754551671,,
1557947806239,7.766449584960938,-2.9444221597195894,1.0077009935226302,-5.225782928466797,0.12349319458007812,998.4226989746094,93.52544403076172,40.371964911019866,,
1557947806310,6.827302551269532,-2.9444221597195894,0.3941431734844309,-5.133275299072266,0.29413833618164065,998.4226989746094,94.59613037109375,40.37196664883606,,
1557947806372,6.766678619384766,-2.9444221597195894,0.29308348303797926,-4.283193054199219,0.37631744384765625,998.4226989746094,94.59613037109375,40.3719681499002,,
1557947806439,7.60703109741211,-2.9444221597195894,0.3039561705947628,-3.942052459716797,-0.36479141235351564,998.4226989746094,93.52299499511719,40.37196693703997,,
1557947806511,7.2266720581054695,-2.9444221597195894,0.16013960451805875,-4.531526641845703,0.24638763427734375,998.4226989746094,92.38321685791016,40.37196553629441,,
1557947806572,7.660170593261719,-2.9444221597195894,0.18353750314515954,-5.0374745178222655,0.2517764282226563,998.4226989746094,94.50675201416016,40.37196760350495,,
1557947806639,8.816965026855469,-2.9444221597195894,0.48101978464132544,-6.328689422607423,0.013621673583984376,998.4226989746094,100.78071594238281,40.371967438303066,,
1557947806707,9.882898406982422,-2.9444221597195894,0.49718035502407054,-7.395520935058594,-0.049846343994140625,998.4226989746094,103.87533569335938,40.3719695484466,,
1557947806773,11.060798950195313,-2.9444221597195894,0.6487225227843482,-9.133856048583985,0.13516891479492188,998.4226989746094,105.39863586425781,40.37196494169037,,
1557947806839,8.070317687988283,-2.9444221597195894,1.1158938057521357,-4.989873504638672,0.17962646484375,998.4226989746094,105.39863586425781,40.37196933184307,,
1557947806912,7.089108123779297,-2.9444221597195894,0.41805267957695513,-6.250851287841797,0.13142669677734375,998.40576171875,106.67353820800781,40.3719659966683,,
1557947806973,6.773115234375,-2.9444221597195894,0.36180351645076764,-5.545368347167969,1.2289443969726563,998.40576171875,109.31653594970703,40.371965976331985,,
1557947807039,7.848778381347657,-2.9444221597195894,0.27795244349802506,-5.655090179443359,1.6149916076660158,998.40576171875,109.31653594970703,40.37196837782104,,
1557947807111,7.397466888427735,-2.9444221597195894,0.12982773431139624,-5.201832733154297,1.4031820678710938,998.40576171875,109.31653594970703,40.37196530083948,,
1557947807173,6.168073425292969,-2.9444221597195894,0.32887954369298583,-5.288801879882813,1.6890875244140626,998.40576171875,112.431884765625,40.37196975975292,,
1557947807239,6.9639683532714844,-2.9444221597195894,0.21115830119808177,-4.599485321044922,1.6769627380371095,998.40576171875,122.86736297607422,22.25396367577461,,
1557947807307,7.637567596435547,-2.9444221597195894,0.25787918474694516,-4.623285827636719,1.0195298767089844,998.40576171875,127.86466217041016,22.253969153611955,,
1557947807373,7.256011047363281,-2.9444221597195894,0.12496233443842436,-4.993466033935547,0.8554710388183594,998.40576171875,131.81304931640625,22.253972009749077,,
1557947807439,7.786058807373047,-2.9444221597195894,0.2647332708424268,-5.813311157226563,0.6692582702636719,998.40576171875,106.29008483886719,22.25397261218258,,
1557947807507,9.396260375976563,-2.9444221597195894,0.5228654998982631,-6.713090057373047,0.4041595458984375,998.40576171875,102.1553726196289,22.253976775064363,,
1557947807572,9.200766906738282,-2.9444221597195894,0.2874640207089688,-7.52799545288086,0.30731094360351563,998.40576171875,98.0462875366211,22.2539817651198,,
1557947807639,8.181686096191406,-2.9444221597195894,0.678061741860015,-4.224814453125,0.37661682128906254,998.40576171875,96.73567962646484,22.253984753430576,,
1557947807711,8.246800689697267,-2.9444221597195894,0.2766644590986961,-5.348228302001953,-0.7186555480957032,998.40576171875,95.44322967529297,22.25398924853315,,
1557947807772,7.506290588378906,-2.9444221597195894,0.3336594732428742,-6.150260467529297,0.2758763122558594,998.40576171875,99.95309448242188,22.253995821881812,,
1557947807839,7.306905212402344,-2.9444221597195894,0.2952861162054953,-4.973108367919922,-0.4355941772460938,998.40576171875,103.48532104492188,22.254001923637958,,
1557947807907,7.409292297363281,-2.9444221597195894,0.06440819119117361,-5.051395568847656,-0.10597961425781251,998.40576171875,106.99520874023438,22.25400275039993,,
1557947807972,7.401807861328125,-2.9444221597195894,0.05759488465911369,-5.154082031250001,-0.377215576171875,998.3930206298828,108.18223571777344,22.254002571809377,,
1557947808039,7.802075500488281,-2.9444221597195894,0.12033541171681282,-5.400918731689454,-0.38574783325195316,998.3930206298828,113.13224029541016,22.25400210646058,,
1557947808110,8.655899963378907,-2.9444221597195894,0.3517359808212993,-6.366710357666016,-0.4519102478027344,998.3930206298828,117.53611755371094,22.25400233972627,,
1557947808172,10.410551147460938,-2.9444221597195894,0.8858558506338142,-9.038654022216797,-0.44337799072265627,998.3930206298828,120.27783966064453,22.25400136217458,,
1557947808239,8.433013458251953,-2.9444221597195894,0.641111247234161,-6.295159149169923,0.14594650268554688,998.3930206298828,124.32846069335938,22.254002107302103,,
1557947808312,7.203919372558594,-2.9444221597195894,0.47151484445145175,-6.435118103027344,0.17857864379882812,998.3930206298828,130.46705627441406,22.254002072198578,,
1557947808372,7.469616851806641,-2.9444221597195894,0.47599552374800935,-7.861950988769531,0.7223977661132813,998.3930206298828,135.58282470703125,22.254001439102467,,
1557947808439,7.217541046142578,-2.9444221597195894,0.2528847410758695,-6.862629089355469,1.3736933898925783,998.3930206298828,138.09986877441406,22.254001934120335,,
1557947808512,6.428082733154297,-2.9444221597195894,0.23208994123577345,-6.654561767578126,1.2073892211914063,998.3930206298828,143.64437866210938,22.254000931872834,,
1557947808571,6.310577087402344,-2.9444221597195894,0.09756880761021357,-6.553970947265626,1.1177256774902344,998.3930206298828,157.87991333007812,22.254001795722463,,
1557947808639,5.760620727539063,-2.9444221597195894,0.17324957176980213,-6.393354949951172,1.3287867736816408,998.3930206298828,167.000732421875,22.254001918572555,,
1557947808712,5.969286804199219,-2.9444221597195894,0.10800652300782611,-6.834487609863282,1.4615606689453127,998.3930206298828,174.2417755126953,22.25400252654906,,
1557947808772,7.780370635986329,-2.9444221597195894,0.497147290695938,-7.455995178222657,1.7510586547851563,998.3930206298828,179.63563537597656,22.254001049367695,,
1557947808839,10.1548828125,-2.9444221597195894,0.7796652137771103,-8.582702178955078,1.756746826171875,998.3930206298828,181.32012939453125,22.254002089114934,,
1557947808907,9.358987884521484,-2.9444221597195894,0.26654340427829304,-8.547375640869141,2.7562184143066406,998.3930206298828,186.016357421875,22.254001824808718,,
1557947808972,7.23819808959961,-2.9444221597195894,1.485207978118682,-3.06802001953125,1.2879217529296876,998.3824920654297,191.79544067382812,22.254001523863405,,
1557947809039,8.682245178222656,-2.9444221597195894,1.0432008533558925,-8.444240112304687,0.9666897583007813,998.3824920654297,199.7473602294922,22.25400169982442,,
1557947809112,6.681206359863282,-2.9444221597195894,0.4519787476474806,-7.093449096679688,1.1762539672851564,998.3824920654297,218.29261779785156,22.254002069020878,,
1557947809174,5.036426696777344,-2.9444221597195894,0.7086710045120727,-5.644162902832032,0.04326004028320313,998.3824920654297,234.6710662841797,22.254001065698223,,
1557947809239,4.246070251464844,-2.9444221597195894,0.35409560740268786,-5.4901332092285156,0.21989273071289064,998.3824920654297,248.45431518554688,22.25400226565636,,
1557947809311,6.189329223632813,-2.9444221597195894,0.41659182756008134,-6.029761047363282,0.2736309814453125,998.3824920654297,254.45364379882812,22.25400157120345,,
1557947809373,8.650960235595704,-2.9444221597195894,0.7911654963983202,-7.220684509277344,0.6301895141601562,998.3824920654297,252.470458984375,22.254001210943976,,
1557947809439,11.245365142822266,-2.9444221597195894,0.9502747007207335,-8.696914672851562,1.038240966796875,998.3824920654297,250.75392150878906,22.25400156859629,,
1557947809511,12.38270004272461,-2.9444221597195894,0.5434788241573391,-9.174122314453125,0.8421487426757813,998.3824920654297,241.72415161132812,22.254000318869863,,
1557947809572,12.553943939208985,-2.9444221597195894,0.4680670039300283,-7.399712219238282,0.031284942626953124,998.3824920654297,237.23263549804688,22.253999660873596,,
1557947809639,10.261311492919923,-2.9444221597195894,0.9244321977510153,-4.765639801025391,0.06451583862304688,998.3824920654297,233.84384155273438,22.254002881158936,,
1557947809710,9.378447418212891,-2.9444221597195894,0.6951245107897553,-7.851921844482423,0.6509962463378907,998.3824920654297,238.17645263671875,22.25400115219475,,
1557947809772,8.397237854003906,-2.9444221597195894,0.5751568604529073,-8.740923156738281,1.6748670959472658,998.3824920654297,244.18026733398438,22.254002263070042,,
1557947809839,7.4115376281738286,-2.9444221597195894,0.38466698651619063,-7.685018920898438,0.9933343505859376,998.3824920654297,250.2028350830078,22.254002084016136,,
1557947809911,5.8457936096191405,-2.9444221597195894,0.5254342893855196,-7.503296813964844,1.9272422790527344,998.3824920654297,258.318603515625,22.254000948165164,,
1557947809972,5.412893829345704,-2.9444221597195894,0.24723360426955837,-7.229665832519531,1.875150604248047,998.3622741699219,269.4003601074219,22.254002042102776,,
1557947810038,4.8526089477539065,-2.9444221597195894,0.279578846795839,-8.114475860595704,1.8553916931152346,998.3622741699219,275.79425048828125,22.25400109889153,,
1557947810112,4.960833892822266,-2.9444221597195894,0.3147083660875388,-9.161847839355469,1.6941769409179688,998.3622741699219,281.1217956542969,22.254001932073482,,
1557947810172,7.825277252197266,-2.9444221597195894,0.9362286085891951,-11.244916076660157,1.2731025695800782,998.3622741699219,277.1505126953125,22.254001752166708,,
1557947810239,8.896599426269532,-2.9444221597195894,0.7832193609269995,-8.070766754150391,1.4687457275390625,998.3622741699219,266.9497375488281,22.25400145556162,,
1557947810311,8.32598602294922,-2.9444221597195894,0.6183664550656177,-6.389163665771485,0.6152206420898437,998.3622741699219,258.73590087890625,22.254000990421027,,
1557947810372,6.669979705810547,-2.9444221597195894,0.4277774681795207,-7.022945709228516,1.1032058715820312,998.3622741699219,258.92449951171875,22.25400192985976,,
1557947810439,6.408922576904297,-2.9444221597195894,0.3386428048328799,-5.756279754638673,1.2232562255859376,998.3622741699219,262.9705810546875,22.254001141490097,,
1557947810510,7.301366729736328,-2.9444221597195894,0.3577478173169331,-5.068460083007813,0.5676196289062501,998.3622741699219,264.04034423828125,22.254001227027622,,
1557947810571,7.567213897705079,-2.9444221597195894,0.18752842079961157,-5.768105163574219,1.1415261840820312,998.3622741699219,265.2812805175781,22.254000790259628,,
1557947810639,8.334368591308595,-2.9444221597195894,0.24125067154314145,-6.041586456298829,0.9186396789550781,998.3622741699219,266.93115234375,22.2540026402902,,
1557947810710,8.797206115722657,-2.9444221597195894,0.3322818934402179,-7.0699479675292976,1.1433224487304687,998.3622741699219,268.6266784667969,22.254002006697256,,
1557947810772,10.868748321533204,-2.9444221597195894,0.8436050672744805,-9.22696243286133,1.7393829345703127,998.3622741699219,270.23419189453125,22.254002102368748,,
1557947810839,9.758207702636719,-2.9444221597195894,0.6282233237986008,-6.165528717041016,1.569935302734375,998.3622741699219,268.88134765625,22.25400175822083,,
1557947810910,9.663305053710937,-2.9444221597195894,0.15158484611286183,-6.607559509277344,1.0386900329589843,998.3622741699219,265.4119873046875,22.25400157057305,,
1557947810972,9.211993560791017,-2.9444221597195894,0.25041388380291774,-7.46811996459961,1.4458433532714845,998.3403778076172,262.0550231933594,22.25400089127747,,
1557947811039,7.973768463134766,-2.9444221597195894,0.43775929097238386,-8.17854263305664,1.9619700622558596,998.3403778076172,259.7370300292969,22.254002399792494,,
1557947811107,6.817572784423828,-2.9444221597195894,0.4341093069489627,-7.181166687011719,1.4039305114746095,998.3403778076172,264.5781555175781,22.25400044959162,,
1557947811172,5.212909698486328,-2.9444221597195894,0.5009137103668583,-7.410190429687501,1.821262664794922,998.3403778076172,271.6368103027344,22.254001649029387,,
1557947811239,4.887037353515625,-2.9444221597195894,0.26737765158384197,-8.04052963256836,1.991309051513672,998.3403778076172,278.87908935546875,22.254001433140008,,
1557947811306,5.515280914306641,-2.9444221597195894,0.30305766793359157,-9.004075927734375,2.097887420654297,998.3403778076172,283.48504638671875,22.254001334380817,,
1557947811372,7.4256083679199225,-2.9444221597195894,0.6794161499994602,-10.52985305786133,1.8167720031738281,998.3403778076172,284.6348876953125,22.254000997954478,,
1557947811438,7.141798553466797,-2.9444221597195894,0.19429795085750098,-9.667945404052736,1.2542417907714845,998.3403778076172,282.6268615722656,22.254002174522558,,
1557947811511,8.315208435058594,-2.9444221597195894,0.7002865296429315,-7.26933334350586,1.124461669921875,998.3403778076172,276.447021484375,22.254001501488606,,
1557947811571,8.728948059082033,-2.9444221597195894,0.5605194043096644,-5.979166259765625,0.28021728515625,998.3403778076172,267.2988586425781,22.25400099096138,,
1557947811639,6.776109008789063,-2.9444221597195894,0.6502103054369133,-4.559069366455079,0.38215530395507813,998.3403778076172,261.4814147949219,22.254001736685012,,
1557947811710,6.61070297241211,-2.9444221597195894,0.18580065174922178,-4.702321472167969,0.14534774780273438,998.3403778076172,261.4814147949219,22.254001634045206,,
1557947811772,6.910828857421875,-2.9444221597195894,0.2233472094191149,-5.563330993652344,0.6256988525390625,998.3403778076172,264.79962158203125,22.25400208997553,,
1557947811839,7.215445404052735,-2.9444221597195894,0.1627394342842702,-5.765560455322266,0.9092092895507813,998.3403778076172,266.65399169921875,22.254002384669622,,
1557947811911,7.554190979003907,-2.9444221597195894,0.16916620053974893,-6.083050231933594,1.1355386352539063,998.3403778076172,268.5282897949219,22.254002248428463,,
1557947811972,8.797505493164063,-2.9444221597195894,0.4936164468068012,-7.419471130371094,1.1044033813476564,998.3296966552734,272.9309387207031,22.25400269601632,,
1557947812039,10.71771240234375,-2.9444221597195894,0.9575769948539162,-10.151889038085939,1.1958631896972658,998.3296966552734,274.1961364746094,22.254002753924688,,
1557947812110,9.354796600341798,-2.9444221597195894,0.5124332749183509,-7.491022338867188,1.1541000366210938,998.3296966552734,273.1544189453125,22.254002554827398,,
1557947812172,8.941356353759765,-2.9444221597195894,0.6283179877421704,-5.61153076171875,0.5165757751464845,998.3296966552734,268.1177062988281,22.254002224422035,,
1557947812239,9.101223907470704,-2.9444221597195894,0.2917756734028665,-7.364834747314453,0.738713836669922,998.3296966552734,259.39990234375,22.25400143923375,,
1557947812310,8.014334106445313,-2.9444221597195894,0.3639568135233998,-6.816375274658204,1.6590000915527345,998.3296966552734,253.58055114746094,22.25400160746217,,
1557947812372,6.260880432128906,-2.9444221597195894,0.5477941971309382,-6.086942138671875,1.6926800537109377,998.3296966552734,254.82025146484375,22.254001775636482,,
1557947812439,4.790637817382812,-2.9444221597195894,0.5310275413958164,-6.612499237060547,2.3318508911132816,998.3296966552734,263.0505065917969,22.254002105223783,,
1557947812508,4.878355407714844,-2.9444221597195894,0.3890519917769267,-8.02810546875,2.275567932128906,998.3296966552734,272.075439453125,22.254001681559412,,
1557947812572,5.890550537109375,-2.9444221597195894,0.2942423144938418,-8.255332946777344,2.6861640930175783,998.3296966552734,279.0549621582031,22.25400149635352,,
1557947812639,6.696175231933594,-2.9444221597195894,0.41566505872575127,-9.36542449951172,2.2474264526367187,998.3296966552734,275.65869140625,22.254001694629157,,
1557947812707,8.535699920654297,-2.9444221597195894,0.7373930970430093,-10.875334625244141,1.3455519104003908,998.3296966552734,271.90081787109375,22.254001613659366,,
1557947812772,7.79384262084961,-2.9444221597195894,0.702711042042826,-7.670948181152344,1.0425819396972658,998.3296966552734,269.208251953125,22.25400193798115,,
1557947812839,8.176297302246095,-2.9444221597195894,0.5313020384732906,-6.6189358520507815,0.0031434631347656253,998.3296966552734,262.4696044921875,22.254001448216886,,
1557947812911,7.12039306640625,-2.9444221597195894,0.3635067332616124,-5.981710968017579,0.42616378784179687,998.3296966552734,262.4696044921875,22.25400095048077,,
1557947812972,7.387437744140626,-2.9444221597195894,0.3687413098144333,-4.786147155761719,0.2124082946777344,998.3198547363281,260.792236328125,22.25400186427014,,
1557947813039,7.6526861572265625,-2.9444221597195894,0.2530326471624675,-4.617897033691406,-0.55803955078125,998.3198547363281,257.5177307128906,22.254002428554866,,
1557947813111,7.120542755126953,-2.9444221597195894,0.19683004887685057,-5.221441955566407,0.07409591674804687,998.3198547363281,258.8486022949219,22.254000955323676,,
1557947813171,7.5470059204101565,-2.9444221597195894,0.20417894735898917,-5.541476440429688,0.5828878784179687,998.3198547363281,261.4636535644531,22.254001271284473,,
1557947813239,7.818990325927735,-2.9444221597195894,0.2596072754572319,-6.3812301635742195,0.6640191650390626,998.3198547363281,264.9656066894531,22.254002203379255,,
1557947813311,8.433163146972657,-2.9444221597195894,0.38531146336956884,-7.494914245605469,0.8463400268554688,998.3198547363281,267.724365234375,22.254001580794892,,
1557947813372,9.947713623046875,-2.9444221597195894,0.7584534426622274,-9.633516998291016,1.2506492614746094,998.3198547363281,269.2331237792969,22.254001640689136,,
1557947813439,7.912695465087891,-2.9444221597195894,1.0435550829533378,-5.164560241699219,1.182989959716797,998.3198547363281,271.1702880859375,22.25400165939593,,
1557947813510,8.50127151489258,-2.9444221597195894,0.29242254267730167,-7.278164978027344,1.0777587890625,998.3198547363281,267.4423828125,22.254002632007438,,
1557947813572,8.317453765869141,-2.9444221597195894,0.04627060529279722,-6.887178039550782,1.169667663574219,998.3198547363281,262.54058837890625,22.254001497863527,,
1557947813639,7.970475311279297,-2.9444221597195894,0.1836469304883,-6.336173858642579,1.4004876708984375,998.3198547363281,257.5880432128906,22.254001368292908,,
1557947813712,6.334227905273438,-2.9444221597195894,0.47705663675686283,-5.956114196777344,1.9452049255371096,998.3198547363281,257.68756103515625,22.254001720269514,,
1557947813772,5.251379699707032,-2.9444221597195894,0.4034526808998154,-6.59633285522461,2.188898162841797,998.3198547363281,263.4359130859375,22.25400226633797,,
1557947813839,5.416336669921876,-2.9444221597195894,0.2988181453256759,-7.544910278320313,1.9426602172851564,998.3198547363281,269.2978820800781,22.254001737589064,,
1557947813909,5.966293029785157,-2.9444221597195894,0.22053828259756042,-7.963589630126953,1.8148260498046875,998.3198547363281,271.6974182128906,22.254001036166965,,
1557947813972,8.070916442871095,-2.9444221597195894,0.8507645567194992,-10.335706787109375,1.520538024902344,998.3198547363281,272.9471435546875,22.25400135172256,,
1557947814039,9.690847778320313,-2.9444221597195894,0.7626158550332629,-11.747870178222657,1.0005194091796876,998.2976531982422,271.78839111328125,22.25400194130082,,
1557947814110,7.955356750488281,-2.9444221597195894,1.2461070218430341,-6.415209503173829,0.7149133300781251,998.2976531982422,268.15948486328125,22.254000381809558,,
1557947814172,7.619754638671876,-2.9444221597195894,0.5578433091247617,-5.755680999755859,-0.22528152465820314,998.2976531982422,266.19207763671875,22.254002168945274,,
1557947814239,6.087840270996094,-2.9444221597195894,0.5066832567877033,-5.165009307861328,0.4028123474121094,998.2976531982422,267.2432861328125,22.25400233583653,,
1557947814312,6.457721099853516,-2.9444221597195894,0.1791072160109577,-4.730013885498047,0.16435821533203127,998.2976531982422,268.79583740234375,22.2540016420585,,
1557947814371,6.905739440917969,-2.9444221597195894,0.14206000346549685,-4.617148590087891,0.42706192016601563,998.2976531982422,270.257080078125,22.254002447088258,,
1557947814439,7.281907196044922,-2.9444221597195894,0.1822256296586492,-4.752018127441406,0.9111552429199219,998.2976531982422,271.4186096191406,22.25400191108203,,
1557947814512,8.086633758544922,-2.9444221597195894,0.3490327530946057,-5.781128082275391,0.7858657836914062,998.2976531982422,275.4902038574219,22.254002125204565,,
1557947814572,9.055868225097656,-2.9444221597195894,0.41503074365428727,-6.540498962402344,0.26120681762695314,998.2976531982422,280.0728759765625,22.25400034291867,,
1557947814639,10.353669433593751,-2.9444221597195894,0.6423948693882812,-8.296347656250001,0.4631369018554688,998.2976531982422,283.20574951171875,22.254002232722957,,
1557947814711,9.871072998046875,-2.9444221597195894,0.20639210987809053,-7.982450408935548,1.2446617126464845,998.2976531982422,287.6250915527344,22.25400215442189,,
1557947814772,7.5856256103515625,-2.9444221597195894,1.0987493233262526,-4.270020446777344,0.29413833618164065,998.2976531982422,289.64678955078125,22.25400189605861,,
1557947814839,7.312144317626953,-2.9444221597195894,0.41594034978802774,-6.58435775756836,0.18007553100585938,998.2976531982422,277.44873046875,22.254000896995347,,
1557947814913,7.9803547668457036,-2.9444221597195894,0.24101530949077743,-6.555916900634766,1.0388397216796876,998.2976531982422,271.9283142089844,22.254001410274196,,
1557947814972,7.942932586669922,-2.9444221597195894,0.27212609982802194,-5.614524536132813,1.496737518310547,998.2976531982422,264.1388854980469,22.254001032805476,,
1557947815038,6.916517028808594,-2.9444221597195894,0.3239236885022062,-6.235433349609376,2.0410057067871095,998.2701873779297,261.357666015625,22.25400315922767,,
1557947815110,5.481600952148438,-2.9444221597195894,0.4419551502702339,-6.575376434326172,2.156715087890625,998.2701873779297,267.17535400390625,22.254002060726986,,
1557947815172,4.7045668029785155,-2.9444221597195894,0.32776672396764084,-6.377038879394531,1.5599061584472658,998.2701873779297,271.5203857421875,22.25400115306421,,
1557947815239,4.665647735595703,-2.9444221597195894,0.16717461030287925,-6.628815307617188,1.1311976623535156,998.2701873779297,269.63165283203125,22.25400216805716,,
1557947815311,7.694898376464844,-2.9444221597195894,0.9148835415654255,-8.658594360351563,0.9946815490722657,998.2701873779297,285.87158203125,22.25400157255721,,
1557947815371,10.640173645019532,-2.9444221597195894,1.13332632966785,-10.76127182006836,1.2069401550292969,998.2701873779297,281.9158630371094,22.254001798597482,,
1557947815438,11.195219421386719,-2.9444221597195894,0.5520158149552709,-11.087293853759766,2.484832763671875,998.2701873779297,275.7800598144531,22.254002035934608,,
1557947815510,8.82849105834961,-2.9444221597195894,1.4470540237568341,-5.539680175781251,0.9684860229492188,998.2701873779297,275.7800598144531,22.254001031719888,,
1557947815572,7.986641693115235,-2.9444221597195894,0.718729503395519,-4.985083465576172,-0.19878662109375,998.2701873779297,275.7800598144531,22.254000734022267,,
1557947815639,6.281836853027344,-2.9444221597195894,0.5459311519951048,-4.752018127441406,0.7149133300781251,998.2701873779297,284.73626708984375,22.254001216753558,,
1557947815711,6.279292144775391,-2.9444221597195894,0.27843104130234436,-4.0231837463378906,0.10313552856445313,998.2701873779297,292.87457275390625,22.254002393152692,,
1557947815772,5.941444702148438,-2.9444221597195894,0.13784327004359195,-4.462669830322266,0.4149371337890625,998.2701873779297,300.90997314453125,22.254001267641243,,
1557947815839,6.587650909423829,-2.9444221597195894,0.27501677779653777,-5.299429779052734,0.0017962646484375,998.2701873779297,307.8578796386719,22.25400086133878,,
1557947815912,6.783593444824219,-2.9444221597195894,0.1738641176244278,-5.6892192077636725,0.07918533325195314,998.2701873779297,313.6988525390625,22.25400244333599,,
1557947815971,6.6452810668945315,-2.9444221597195894,0.22741160344182806,-4.813390502929688,-0.46702880859375,998.2701873779297,318.27532958984375,22.254002750153138,,
1557947816039,6.7422793579101565,-2.9444221597195894,0.23447953408081096,-5.797743530273438,-0.805924072265625,998.2479858398438,323.3373718261719,22.25400168116978,,
1557947816114,7.237449645996094,-2.9444221597195894,0.2868652356385972,-6.213728485107422,0.2173480224609375,998.2479858398438,325.7344665527344,22.254000252179395,,
1557947816172,9.153165893554688,-2.9444221597195894,0.6317793346763726,-7.019203491210938,1.031055908203125,998.2479858398438,325.7344665527344,22.254003179396403,,
1557947816239,10.799292755126954,-2.9444221597195894,0.7698660452759873,-8.9046826171875,1.2229568481445312,998.2479858398438,325.7344665527344,22.254000987464106,,
1557947816310,9.370962982177735,-2.9444221597195894,0.9308062342393458,-4.8859895324707034,0.13307327270507813,998.2479858398438,325.7344665527344,22.254000725513112,,
1557947816371,8.78732666015625,-2.9444221597195894,0.2972270183427273,-5.499862976074219,-0.45834686279296877,998.2479858398438,326.58087158203125,22.254003519662174,,
1557947816439,8.076903991699218,-2.9444221597195894,0.5274532313668626,-7.218888244628906,0.6891668701171876,998.2479858398438,332.5164489746094,22.25400188733496,,
1557947816513,8.36295913696289,-2.9444221597195894,0.5256343892348551,-7.559729461669923,2.416125640869141,998.2479858398438,343.12359619140625,22.2540032053244,,
1557947816571,8.004005584716797,-2.9444221597195894,0.1387416905988899,-7.049739990234375,2.219135284423828,998.2479858398438,349.2050476074219,22.254002496416053,,
1557947816639,6.659202117919922,-2.9444221597195894,0.3803526051805523,-7.124883728027344,1.6289126586914062,998.2479858398438,359.6110534667969,22.254002276029418,,
1557947816712,4.793332214355469,-2.9444221597195894,0.6681487889133543,-6.29695541381836,0.5289999389648438,998.2479858398438,11.669073104858398,22.254002831766353,,
1557947816771,4.36177963256836,-2.9444221597195894,0.43729468158663315,-5.438340911865235,-0.1375639343261719,998.2479858398438,18.554508209228516,22.254002528906106,,
