timestamp,AmbientLightSensor,DecibelSource,PitchSensor,LinearAccelerometerSensor,AccX,AccY,AccZ,BarometerSensor,CompassSensor,MagneticRotationSensor
1557947966929,,38.80626137333087,42.6708984375,,,,,,,
1557947966949,,,,4.334944107768919,,,,,,
1557947966969,,33.15397158478337,42.6708984375,,,,,,,
1557947966978,,,46.81640625,,,,,,,
1557947967009,,33.08384531802919,46.81640625,,,,,,,
1557947967045,,,,3.6964886267543973,0.5506663918495178,-1.1492167711257935,12.304999351501465,,153.1164350772995,36.093629026003825
1557947967046,49.0,,,,,,,,,
1557947967049,,33.08454803508212,46.81640625,,,,,,,
1557947967089,,33.75915165222739,,,,,,,,
1557947967098,54.0,,,1.60514735510987,1.8818424940109253,0.1149216815829277,8.881291389465332,1000.9299926757813,155.1774993008642,36.289668501903236
1557947967129,,33.22545108773412,,,,,,,,
1557947967141,,,99.08683268229166,,,,,,,
1557947967146,,,,1.0670874798709173,,,,,,
1557947967163,,,,,,0.28730419278144836,7.593210697174072,,,36.65228561414646
1557947967164,54.0,,,,2.9017724990844727,,,,166.18637088433408,
1557947967189,,32.18707100561714,99.08683268229166,,,,,,,
1557947967213,,,,1.7012933803748187,,,,,,
1557947967229,,35.44969045656267,99.08683268229166,,3.2561142444610596,-0.3926490843296051,9.331400871276855,,165.91052686451394,36.65228561414646
1557947967269,,30.73194063214576,99.08683268229166,,,,,,,
1557947967279,,,,0.6589951546538634,,,,,,
1557947967280,54.0,,,,,,,,,
1557947967284,,,122.35880533854166,,,,,,,
1557947967296,,,,,,,,,,37.80185269250814
1557947967297,56.0,,,,2.959233283996582,-0.07661445438861847,7.492654323577881,1000.8699951171875,161.07878274375523,
1557947967309,,30.53983680774527,122.35880533854166,,,,,,,
1557947967347,,,,1.7917850218722426,,,,,,
1557947967349,,29.61009545523442,122.35880533854166,,,,,,,
1557947967364,,,,,4.146757125854492,-1.556231141090393,8.948328971862793,,167.05730196578077,37.05212563145607
1557947967398,56.0,,,0.9058367345957228,,,,,,
1557947967409,,28.49788143902693,,,,,,,,
1557947967416,,,,,3.529053211212158,-0.9959878921508789,10.145429611206055,,159.16947166316987,36.86882267615165
1557947967449,,31.058189421031365,0.0,,,,,,,
1557947967475,,,,1.1315077535453804,,,,,,
1557947967489,,31.99201617799778,,,,,,,,
1557947967493,63.0,,,,2.3558945655822754,0.8667010068893433,10.313023567199707,1000.9199829101563,157.65946710184178,35.51929099741413
1557947967526,63.0,,,2.417563754230242,,,,,,
1557947967529,,33.73552352710326,,,,,,,,
1557947967540,,,79.227294921875,,,,,,,
1557947967544,,,,,,,,,,35.75178385412163
1557947967545,,,,,3.227383852005005,0.5602431893348694,10.81580638885498,,152.2516375057275,
1557947967569,,33.34303871075467,79.227294921875,,,,,,,
1557947967589,,,,2.190907358645888,,,,,,
1557947967604,,,,,,,,,,36.178171408726406
1557947967605,,,,,3.4332852363586426,-0.40701428055763245,9.700108528137207,,160.9708930756257,
1557947967609,,33.1529549792543,79.227294921875,,,,,,,
1557947967622,,,53.885986328125,,,,,,,
1557947967638,63.0,,,,,,,,,
1557947967654,,,,0.5330237341851499,,,,,,
1557947967669,,30.769457849348267,53.885986328125,,,,,,,
1557947967673,,,,,,,10.648212432861328,,,36.686510491877236
1557947967674,,,,,2.2361843585968018,-0.8619126081466675,,1000.9400024414063,156.89239587691435,
1557947967709,,29.156056431671313,53.885986328125,,,,,,,
1557947967714,,,,1.5870392078058555,,,,,,
1557947967740,,,,,0.9672574996948242,0.2059013396501541,10.830171585083008,,150.04159319598648,37.14969761906371
1557947967741,,,,,,,,,151.24572822590306,
1557947967749,,29.520880701825718,,,,,,,,
1557947967753,63.0,,,,,,,,,
1557947967779,,,,1.2779168292877687,,,,,,
1557947967789,,28.832244963715038,0.0,,,,,,,
1557947967806,,,,,,-1.41257905960083,10.140641212463379,,,36.97823738075267
1557947967809,,,,,1.8100165128707886,,,,158.1684801195478,
1557947967829,,28.77348845780042,,,,,,,,
1557947967841,,,,1.9757909060325594,,,,,,
1557947967864,66.0,,,,,-1.2258312702178955,10.02571964263916,,,36.979320018926764
1557947967865,,,,,1.048660397529602,,,1000.9400024414063,165.77642293034992,
1557947967879,66.0,,,,,,,,,
1557947967889,,29.810286831613144,0.0,,,,,,,
1557947967916,,,,1.570091042156795,,,,,,
1557947967929,,27.952483835985966,,,,,,,,
1557947967934,,,,,1.7764976024627686,-0.8858546018600464,8.651448249816895,,,36.29146066326157
1557947967935,,,,,,,,,166.68989242994743,
1557947967969,,24.74716186075134,,,,,,,,
1557947967970,,,,1.787328621178097,,,,,,
1557947967988,,,,,0.9193734526634216,-0.5171475410461426,10.384849548339844,,164.96398558895524,36.27754177545102
1557947968001,66.0,,,,,,,,,
1557947968009,,23.56901852594355,0.0,,,,,,,
1557947968034,,,,1.2367833942957929,,,,,,
1557947968049,,22.3946632295603,,,,,,,,
1557947968051,59.0,,,,0.3256114423274994,0.028730420395731926,10.2747163772583,,165.61200661664938,36.665787842766974
1557947968052,,,,,,,,1000.9299926757813,167.34054991066117,
1557947968089,,22.129778737553952,0.0,,,,,,,
1557947968109,,,,0.7367785869420338,,,,,,
1557947968136,,,,,0.26815059781074524,-0.2968810200691223,10.882843971252441,,167.32067406017646,36.15342306600647
1557947968137,59.0,,,,,,,,,
1557947968149,,24.521795012735318,,,,,,,,
1557947968160,,,,1.2475207059896296,,,,,,
1557947968186,,,,,-0.5602431893348694,-0.1628057211637497,11.869255065917969,,172.01511771823957,36.067020938662885
1557947968189,,24.702504250437286,0.0,,,,,,,
1557947968229,,34.77222276755012,,,,,,,,
1557947968233,,,,2.136146929170119,,,,,,
1557947968255,52.0,,,,-0.11013327538967133,0.1628057211637497,10.054450035095215,1000.969970703125,181.58362899162444,35.83113198126988
1557947968269,,33.61478162951345,,,,,,,,
1557947968279,,,2182.4951171875,,,,,,,
1557947968281,52.0,,,,,,,,,
1557947968301,,,,0.3043728328408357,,,,,,
1557947968309,,31.602152188553152,2182.4951171875,,,,,,,
1557947968327,,,,,0.090979665517807,-1.039083480834961,11.96981143951416,,184.33601764222124,36.32216981244526
1557947968349,,30.05790274425995,2182.4951171875,,,,,,,
1557947968372,,,,2.603011727129693,-0.06703764945268631,-0.33039984107017517,9.724050521850586,,187.61465870798907,36.491369096794685
1557947968409,,30.380450845406934,,,,,,,,
1557947968417,52.0,,,,,,,,,
1557947968432,,,,1.419907854475355,,,,,,
1557947968435,48.0,,,,,,,,,36.40137416477968
1557947968436,,,,,-0.047884032130241394,-1.7190368175506592,11.208455085754395,1000.9599609375,189.73491335090114,
1557947968449,,32.130223356546324,0.0,,,,,,,
1557947968489,,39.261281248688604,,,,,,,,
1557947968503,,,,2.951130188218978,0.7038952708244324,-2.250549554824829,11.467028617858887,,194.92789251648344,36.6696065302998
1557947968529,,36.50268202884851,,,,,,,,
1557947968537,,,66.3330078125,,,,,,,
1557947968551,48.0,,,3.596287768407278,,,,,,
1557947968565,,,,,,-0.9385270476341248,10.767922401428223,,,36.458606807416956
1557947968566,,,,,-0.15801730751991272,,,,195.04963380824972,
1557947968569,,34.172670747301325,66.3330078125,,,,,,,
1557947968629,,31.38937554106041,66.3330078125,,,,,,,
1557947968633,44.0,,,2.32521325640782,,,11.2467622756958,,,36.4190881946809
1557947968634,,,,,-0.4213795065879822,-1.0534487962722778,,1000.9400024414063,200.49024831238012,
1557947968669,,29.43196083257127,66.3330078125,,,,,,,
1557947968681,44.0,,,2.7370364070947626,,,,,,
1557947968701,,,,,,-0.35434186458587646,8.9866361618042,,,36.31225705772981
1557947968702,,,,,0.5793967843055725,,,,205.0399329411739,
1557947968709,,27.13920844207141,,,,,,,,
1557947968746,,,,1.6589124620415987,,,,,,
1557947968749,,25.66622828227669,0.0,,,,,,,
1557947968772,,,,,0.4644751250743866,-0.33518823981285095,8.953117370605469,,,36.49301443480744
1557947968773,,,,,,,,,208.27786607948855,
1557947968789,,25.3252347927993,,,,,,,,
1557947968816,44.0,,,1.6550130723742378,,,,,,
1557947968829,,24.02838803584585,0.0,,,,,,,
1557947968834,29.0,,,,,,9.853337287902832,,,35.60042275381356
1557947968835,,,,,0.40222588181495667,0.272938996553421,,,215.47028750194374,
1557947968836,,,,,,,,1000.97998046875,217.07775886272793,
1557947968878,,,,0.7978116682670612,,,,,,
1557947968889,,23.319131594423524,,,,,,,,
1557947968905,,,,,-0.47405192255973816,1.1827356815338135,10.619482040405273,,216.19361819542644,34.833605212621414
1557947968929,,23.172850926267987,0.0,,,,,,,
1557947968948,,,,1.479035985125866,-0.5985504388809204,1.1683704853057861,10.90678596496582,,221.4416077045841,34.15098938297664
1557947968949,29.0,,,,,,,,226.836446280897,
1557947968969,,36.86799369007734,,,,,,,,
1557947968991,,,,1.697352153648763,,,,,,
1557947969009,,37.26309077453321,,,,,,,,
1557947969023,,,228.62923758370536,,,,,,,
1557947969036,12.0,,,,-1.6089035272598267,1.0055646896362305,10.916362762451172,1000.9299926757813,232.55644284283755,33.94908063315092
1557947969049,,35.16873054721601,228.62923758370536,,,,,,,
1557947969058,,,,1.9077517738019105,,,,,,
1557947969083,,,,,,,,,,33.45609162804634
1557947969084,12.0,,,,-3.2369606494903564,0.790086567401886,10.758345603942871,,214.48786041248582,
1557947969089,,31.592573960622666,228.62923758370536,,,,,,,
1557947969121,,,,2.824524668986428,,,,,,
1557947969138,,,,,-3.222595453262329,-0.6799532771110535,14.555549621582031,,218.1184201450494,34.04438372323832
1557947969149,,31.615049456401888,,,,,,,,
1557947969188,,,,5.419193363201176,,,,,,
1557947969189,,31.35522062488878,0.0,,,,,,,
1557947969197,12.0,,,,,,,,,
1557947969201,14.0,,,,,,,,,34.67765993726174
1557947969202,,,,,-2.5761611461639404,0.3734954595565796,10.576386451721191,1000.9400024414063,228.2506096277915,
1557947969229,,31.82179922801579,,,,,,,,
1557947969248,,,,1.5321919405096955,,,,,,
1557947969265,,,,,-2.4660277366638184,0.272938996553421,9.896432876586914,,231.8344098852972,35.19346580709027
1557947969269,,30.830552250069452,0.0,,,,,,,
1557947969309,,28.160143549913567,,,,,,,,
1557947969311,14.0,,,,,,,,,
1557947969313,,,,1.0523122532130513,,,,,,
1557947969331,,,,,-2.47560453414917,0.3878606855869293,9.135076522827148,,239.8163192135358,35.285408160711334
1557947969368,,26.051877231888785,,,,,,,,
1557947969378,,,,1.1130951307552666,,,,,,
1557947969392,,,,,,,,,,35.13545249637814
1557947969393,8.0,,,,-2.2409727573394775,1.0534487962722778,9.398438453674316,1000.9400024414063,244.08990027532104,
1557947969409,,24.63158594794419,0.0,,,,,,,
1557947969428,8.0,,,,,,,,,
1557947969449,,26.081843781372708,,,,,,,,
1557947969454,,,,0.8680800578579941,,,,,,
1557947969468,,,,,,1.359906554222107,7.947552680969238,,,35.13715979738131
1557947969469,,,,,-1.9153614044189453,,,,257.73955521834966,
1557947969489,,25.126190892985246,0.0,,,,,,,
1557947969510,,,,1.8369551415238274,,,,,,
1557947969529,,25.711505658056574,,,,,,,,
1557947969536,,,,,-1.680729627609253,1.647210717201233,8.732851028442383,,258.6728595872969,34.39840191855098
1557947969551,8.0,,,,,,,,,
1557947969569,,24.81359757065626,0.0,,,,,,,
1557947969577,,,,1.0624766066724751,,,,,,
1557947969592,7.0,,,,-1.5705963373184204,1.6759412288665771,10.073603630065918,,259.79321551685405,34.28906631535763
1557947969593,,,,,,,,1000.9199829101563,,
1557947969629,,22.955842789930347,,,,,,,,
1557947969635,,,,0.6553417005386383,,,,,,
1557947969660,,,,,,,10.705673217773438,,,34.28206522470404
1557947969661,,,,,-2.0829553604125977,2.1356279850006104,,,259.9875753798759,
1557947969669,,23.398932544087213,0.0,,,,,,,
1557947969678,7.0,,,,,,,,,
1557947969703,,,,1.5768156757603238,,,,,,
1557947969709,,39.01171438595077,,,,,,,,
1557947969723,,,,,-1.3886369466781616,1.2258312702178955,12.084733009338379,,250.81411906036107,34.39026073327024
1557947969750,,37.61801573491732,,,,,,,,
1557947969764,,,,2.5830088278294316,,,,,,
1557947969770,,,66.8769763764881,,,,,,,
1557947969789,,35.540551661251705,66.8769763764881,,,,,,,
1557947969790,,,,,,,,,,33.750408514305555
1557947969791,,,,,-1.2258312702178955,0.9145850539207458,10.667366027832031,1000.8999633789063,247.8478771868513,
1557947969806,7.0,,,,,,,,,
1557947969824,,,,1.26763995802999,,,,,,
1557947969829,,32.70445179921721,66.8769763764881,,,,,,,
1557947969843,,,,,-0.8858546018600464,-0.019153613597154617,12.903550148010254,,,33.93832764629735
1557947969844,,,,,,,,,242.57231420401428,
1557947969889,,32.78040143706806,,,,,,,,
1557947969893,,,,3.505017770893578,,,,,,
1557947969910,,,,,0.9193734526634216,1.3024457693099976,8.028955459594727,,252.99753246252823,33.3394655899028
1557947969926,7.0,,,,,,,,,
1557947969929,,33.18768316997917,,,,,,,,
1557947969940,,,422.6318359375,,,,,,,
1557947969960,,,,2.4175784484695413,,,,,,
1557947969969,,31.130916764075252,422.6318359375,,,,,,,
1557947969979,,,,,,,,,,32.9206616856392
1557947969980,,,,,-1.1971008777618408,0.9193734526634216,10.030508041381836,1000.8800048828125,257.986159198333,
1557947970009,,28.630070017968382,422.6318359375,,,,,,,
1557947970027,,,,1.1945108455614286,,,,,,
1557947970049,,27.11796248560503,422.6318359375,,,,,,,
1557947970054,7.0,,,,-0.8188169598579407,2.0254945755004883,6.630741596221924,,268.7275674040943,32.9206616856392
1557947970096,,,,2.853038834172159,-1.6376339197158813,1.2306196689605713,6.649895191192627,,256.6614644993765,32.83047369404627
1557947970108,,27.12939362611369,,,,,,,,
1557947970141,,,,3.06145475027613,,,,,,
1557947970149,,26.40945484050675,0.0,,,,,,,
1557947970182,6.0,,,,-3.2609026432037354,3.251325845718384,6.295553207397461,,307.4098690703142,33.41436851177606
1557947970183,6.0,,,,,,,1000.8699951171875,302.60259410225706,
1557947970189,,26.611695988901406,,,,,,,,
1557947970224,,,,2.1062002521378904,-6.268020153045654,4.055777549743652,10.360907554626465,,287.5641294745331,34.402035754979906
1557947970229,,25.501200207919652,0.0,,,,,,,
1557947970269,,24.902409483424172,,,,,,,,
1557947970284,,,,3.1934883861554537,,,,,,
1557947970309,,39.39487194137986,0.0,,,,,,,
1557947970311,,,,,-6.440402507781982,4.323928356170654,9.929951667785645,,288.68949876294107,34.69149826513528
1557947970312,6.0,,,,,,,,,
1557947970354,8.0,,,2.870929324054464,-7.450755596160889,3.7397429943084717,10.236409187316895,1000.9299926757813,270.5122343625161,34.566313017897144
1557947970368,,38.00323635700381,,,,,,,,
1557947970400,,,,3.72434486926227,,,,,,
1557947970409,,33.4186886972006,,,,,,,,
1557947970416,,,,,-6.7277069091796875,2.609679937362671,10.030508041381836,,257.122085626813,34.66323811473941
1557947970418,,,220.56640625,,,,,,,
1557947970441,8.0,,,,,,,,,
1557947970449,,32.880663208327555,220.56640625,,,,,,,
1557947970483,,,,2.7970216169234567,-5.544970989227295,1.7908629179000854,10.380061149597168,,,34.305830604517965
1557947970484,,,,,,,,,255.81387900451296,
1557947970489,,31.509602073709083,220.56640625,,,,,,,
1557947970529,,34.069923350629324,,,,,,,,
1557947970530,,,,2.1902787134844095,,,,,,
1557947970548,6.0,,,,-5.521028995513916,2.408566951751709,7.262810707092285,,255.67504857944323,34.73816365105316
1557947970549,,,,,,,,1000.8899536132813,265.22628266195153,
1557947970569,,29.80766316556725,,,,,,,,
1557947970574,6.0,,,,,,,,,
1557947970578,,,100.458984375,,,,,,,
1557947970591,,,,1.5468182794209477,,,,,,
1557947970617,,,,,-5.157110691070557,2.2457611560821533,7.86614990234375,,262.47362080378804,34.98256705488219
1557947970629,,28.070323164630974,100.458984375,,,,,,,
1557947970659,,,,0.7234569340973028,,,,,,
1557947970669,,27.70092636288531,100.458984375,,,,,,,
1557947970676,,,,,-4.414907932281494,1.9536685943603516,7.195773124694824,,263.2953267118864,34.6942358808626
1557947970702,6.0,,,,,,,,,
1557947970709,,27.42776257373604,,,,,,,,
1557947970718,,,,1.1842195977594139,,,,,,
1557947970745,,,,,-3.9695863723754883,2.1068975925445557,4.940435409545898,1000.8899536132813,274.2637089339564,35.31118875037141
1557947970749,,25.71999816397063,,,,,,,,
1557947970787,,,,3.4914858665786626,,,,,,
1557947970789,,24.47607764968005,0.0,,,,,,,
1557947970804,,,,,,,,,,35.390960442239646
1557947970805,,,,,-3.8738183975219727,1.9536685943603516,6.8127007484436035,,264.72662700340845,
1557947970824,6.0,,,,,,,,,
1557947970848,,23.688154816844992,,,,,,,,
1557947970857,,,,1.7605656066128261,,,,,,
1557947970873,,,,,-5.0469770431518555,3.0885202884674072,7.933187484741211,,270.96625752721434,35.63874386450094
1557947970889,,26.053488236202963,0.0,,,,,,,
1557947970909,,,,1.19565941258075,,,,,,
1557947970928,7.0,,,,-5.032611846923828,3.112462282180786,9.704896926879883,1000.8299560546875,268.59788943251243,35.59438144086903
1557947970929,,25.87719732180134,,,,,,,,
1557947970936,7.0,,,,,,,,,
1557947970969,,23.866559267609077,0.0,,,,,,,
1557947970975,,,,1.8994972818771398,,,,,,
1557947970991,,,,,,,11.586739540100098,,,35.889413201846025
1557947970992,,,,,-5.243301868438721,3.050212860107422,,,261.05356300363985,
1557947971009,,41.293972166916774,,,,,,,,
1557947971049,,36.530052193864236,,,,,,,,
1557947971051,,,,3.5871585271392905,,,,,,
1557947971058,,,161.2646484375,,,,,,,
1557947971066,7.0,,,,-4.922478675842285,1.7477672100067139,10.887632369995117,,254.17961964180398,35.65361136379652
1557947971109,,35.792859801713625,161.2646484375,,,,,,,
1557947971112,,,,2.6122407994524033,,,,,,
1557947971137,4.0,,,,-5.463568210601807,0.272938996553421,13.176488876342773,1000.9400024414063,252.5280799004949,36.07519991601867
1557947971149,,33.900941535512665,161.2646484375,,,,,,,
1557947971160,,,159.3896484375,,,,,,,
1557947971181,,,,4.977837846787122,,,,,,
1557947971189,,34.78946727536115,159.3896484375,,,,,,,
1557947971199,4.0,,,,-4.20421838760376,1.3982137441635132,9.115922927856445,,252.0907633785065,36.206906284236396
1557947971229,,32.29223212052008,159.3896484375,,,,,,,
1557947971251,,,,0.6094826823239488,-4.467580318450928,1.1348515748977661,9.317035675048828,,250.30283158966142,36.40123647591388
1557947971269,,31.29745766163684,,,,,,,,
1557947971293,,,,0.7907523765033778,,,,,,
1557947971309,,30.54948228419085,0.0,,,,,,,
1557947971318,6.0,,,,,,,,,36.315425252566186
1557947971319,,,,,-3.845088005065918,1.4939818382263184,8.53652572631836,1000.8899536132813,254.0549960102079,
1557947971334,6.0,,,,,,,,,
1557947971360,,,,0.5350098792616756,,,,,,
1557947971369,,31.51882596749514,,,,,,,,
1557947971378,,,,,-4.050989151000977,2.3750481605529785,6.66904878616333,,,36.161444992567745
1557947971379,,,,,,,,,267.31165552877235,
1557947971409,,31.87841828433877,,,,,,,,
1557947971422,,,,2.6761312214106736,,,,,,
1557947971447,,,,,-3.5673606395721436,1.4700398445129395,8.086416244506836,,258.9607793815696,35.48549048904077
1557947971449,,34.393194509367696,,,,,,,,
1557947971450,,,0.0,,,,,,,
1557947971467,6.0,,,,,,,,,
1557947971489,,37.53017801989728,,,,,,,,
1557947971491,,,,1.4548954996289933,,,,,,
1557947971509,5.0,,,,-5.04218864440918,0.47405192255973816,7.286752700805664,1000.8599853515625,262.8559679633362,35.686832505913365
1557947971529,,27.979142582839938,,,,,,,,
1557947971540,,,60.1806640625,,,,,,,
1557947971553,,,,3.287272131387345,,,,,,
1557947971580,,,,,-5.315127849578857,0.09576806426048279,5.553350925445557,,240.7676826026485,35.944818775390345
1557947971589,,50.44552462242362,60.1806640625,,,,,,,
1557947971598,5.0,,,,,,,,,
1557947971624,,,,4.392307597132973,,,,,,
1557947971629,,51.14889279992144,60.1806640625,,,,,,,
1557947971640,,,42.2412109375,,,,,,,
1557947971643,,,,,,,,,,35.77079836859056
1557947971644,,,,,-7.637503623962402,-0.6272808313369751,4.260481834411621,,189.473453709473,
1557947971669,,44.19101129388247,42.2412109375,,,,,,,
1557947971692,,,,5.354647227687684,,,,,,
1557947971693,11.0,,,,,,1.1623848676681519,,,35.06023423161797
1557947971694,,,,,-7.943961143493652,-1.9393033981323242,,1000.9199829101563,145.87334731158114,
1557947971709,,41.312825494800975,42.2412109375,,,,,,,
1557947971746,11.0,,,6.291796887125939,,,,,,
1557947971749,,38.30158651872323,,,,,,,,
1557947971776,,,,,-10.496180534362793,-1.7525556087493896,0.645237386226654,,141.1466515002572,34.66020935143953
1557947971789,,38.42793601432045,,,,,,,,
1557947971797,,,101.0205078125,,,,,,,
1557947971817,,,,2.611643370585519,,,,,,
1557947971831,,,,,-10.869675636291504,-4.352658748626709,1.40180504322052,,181.14496692236958,36.04483244269229
1557947971849,,35.49527156115366,101.0205078125,,,,,,,
1557947971878,11.0,,,3.6554037565685076,,,,,,
1557947971889,,32.716435500000486,101.0205078125,,,,,,,
1557947971897,,,98.759765625,,,,,,,
1557947971898,,,98.759765625,,,,,,,
1557947971904,,,,,,,,,,37.02782953540282
1557947971905,7.0,,,,-11.501745223999023,-7.287950038909912,2.254140853881836,1000.8699951171875,249.24793619310964,
1557947971929,,31.0336696278995,98.759765625,,,,,,,
1557947971948,,,,5.210973004587628,-13.21599292755127,-5.990292549133301,2.340332269668579,,248.17476321033888,38.043923169690295
1557947971949,,,,,,,,,271.41182491772014,
1557947971969,,28.521933429782468,98.759765625,,,,,,,
1557947972005,,,,5.418567539121884,,,,,,
1557947972006,7.0,,,,,,,,,
1557947972009,,27.51119053534257,,,,,,,,
1557947972032,,,,,,,1.459265947341919,,,39.772604438001544
1557947972033,,,,,-12.081141471862793,-4.055777549743652,,,279.3110479758666,
1557947972049,,26.064619816034707,0.0,,,,,,,
1557947972076,2.0,,,5.41436969276405,-12.368446350097656,-2.959233283996582,2.6803088188171387,1000.9299926757813,309.5380535628526,39.680096468769776
1557947972109,,24.793495812945604,,,,,,,,
1557947972137,2.0,,,8.438421806561296,,,,,,
1557947972139,,,,,-12.301408767700195,-3.9647979736328125,1.9093759059906006,,309.6156206061619,40.220020279464286
1557947972149,,23.382188200274292,,,,,,,,
1557947972189,,25.221873956351647,0.0,,,,,,,
1557947972206,,,,7.965640429979048,,,,,,
1557947972207,,,,,-11.109095573425293,-2.935291290283203,1.0570400953292847,,316.5704538983382,41.07286260735617
1557947972229,,44.06033083416212,,,,,,,,
1557947972249,,,,7.335169157796317,,,,,,
1557947972265,2.0,,,,,,,,,
1557947972269,,44.56718058701807,,,,,,,,
1557947972279,,,200.4248046875,,,,,,,
1557947972292,4.0,,,,-11.640608787536621,-5.104437828063965,1.5598224401474,1000.8499755859375,311.9197336962469,40.45862059381547
1557947972329,,41.7400944497098,200.4248046875,,,,,,,
1557947972335,,,,6.299182705620552,-11.061211585998535,-3.1747114658355713,2.033874273300171,,317.8799036150672,40.54392657534809
1557947972369,,40.2347947438519,200.4248046875,,,,,,,
1557947972376,,,153.310546875,,,,,,,
1557947972382,,,,6.085359244732489,,,,,,
1557947972398,,,,,,-2.6575639247894287,0.7649474143981934,,,40.18519793097289
1557947972399,4.0,,,,-11.439496040344238,,,,321.0742533162879,
1557947972409,,41.22539378845701,153.310546875,,,,,,,
1557947972444,,,,5.664370613925637,,,,,,
1557947972449,,39.22365450614395,153.310546875,,,,,,,
1557947972471,3.0,,,,-12.248735427856445,-5.190629482269287,3.9444472789764404,1000.8999633789063,324.8773333820023,40.189925883448645
1557947972489,,39.88518662565968,,,,,,,,
1557947972514,,,,4.794968813415877,,,,,,
1557947972529,,37.344251339959754,,,,,,,,
1557947972532,,,,,,,,,,39.30534572595343
1557947972533,3.0,,,,-11.587936401367188,-5.679046630859375,4.41849946975708,,322.4808693041495,
1557947972538,,,1267.333984375,,,,,,,
1557947972577,,,,4.602238085752324,,,,,,
1557947972589,,44.33651613221885,1267.333984375,,,,,,,
1557947972604,,,,,-9.931148529052734,-6.100425720214844,3.91092848777771,,,38.94111157367323
1557947972605,,,,,,,,,325.760278766199,
1557947972629,,35.65294579375122,1267.333984375,,,,,,,
1557947972650,4.0,,,4.781908176971645,-8.724471092224121,-6.866570472717285,3.3458969593048096,1000.8499755859375,324.697238369062,37.652225546644914
1557947972667,4.0,,,,,,,,,
1557947972669,,32.350887221429545,,,,,,,,
1557947972698,,,,7.618631173287617,,,,,,
1557947972709,,32.33870247745464,,,,,,,,
1557947972721,,,98.8916015625,,,,,,,
1557947972736,,,,,-7.862558364868164,-6.909666061401367,3.1495723724365234,,,36.64710094544572
1557947972737,,,,,,,,,318.91062355705174,
1557947972749,,31.660909201381124,98.8916015625,,,,,,,
1557947972760,,,,8.456576561102551,,,,,,
1557947972785,,,,,,-7.350199222564697,2.5749640464782715,,,36.14899700614771
1557947972786,,,,,-7.024587631225586,,,,301.33140710525845,
1557947972789,,48.336120276007264,98.8916015625,,,,,,,
1557947972803,4.0,,,,,,,,,
1557947972829,,,,9.183806007622577,,,,,,
1557947972846,6.0,,,,-6.92881965637207,-8.877699851989746,2.3977930545806885,1000.8599853515625,271.191421543393,35.72758052520828
1557947972849,,48.03840972505823,98.8916015625,,,,,,,
1557947972857,,,100.4150390625,,,,,,,
1557947972889,,43.00781868001931,100.4150390625,,,,,,,
1557947972890,,,,10.127684060832227,,,,,,
1557947972917,,,,,,,,,,35.830435262959334
1557947972918,,,,,-7.580042362213135,-7.043741226196289,1.9381062984466553,,267.2395082405695,
1557947972929,,42.55018036542138,100.4150390625,,,,,,,
1557947972936,,,52.4072265625,,,,,,,
1557947972938,6.0,,,,,,,,,
1557947972965,,,,7.156022913632242,,,,,,
1557947972969,,41.40649596458765,52.4072265625,,-9.667786598205566,-5.123591423034668,0.9804255962371826,,,35.570915786583875
1557947972970,,,,,,,,,283.2129096524523,
1557947973009,,48.831380209180196,52.4072265625,,,,,,,
1557947973035,,,,2.178925521179961,,,,,,
1557947973036,7.0,,,,-12.344504356384277,-5.190629482269287,2.49834942817688,1000.8599853515625,290.4592622485939,35.92394801851376
1557947973064,7.0,,,,,,,,,
1557947973068,,38.373656710512385,,,,,,,,
1557947973079,,,,4.0055196349258315,,,,,,
1557947973105,,,,,-11.1474027633667,-3.332728862762451,1.6508020162582397,,308.2467858096942,36.344050715769434
1557947973109,,34.03459323931041,,,,,,,,
1557947973117,,,91.0986328125,,,,,,,
1557947973148,,,,3.3460572740631673,,,,,,
1557947973149,,42.95605946507834,91.0986328125,,,,,,,
1557947973168,,,,,-10.309432983398438,-1.9393033981323242,-0.2454056739807129,,326.8836229035181,36.738128109001835
1557947973189,,36.21172385575005,91.0986328125,,,,,,,
1557947973194,7.0,,,,,,,,,
1557947973195,,,0.0,,,,,,,
1557947973215,,,,4.767233055094634,,,,,,
1557947973229,,30.71579413968241,,,,,,,,
1557947973241,,,,,,,,,,37.150236931477885
1557947973242,1.0,,,,-8.939949035644531,-1.9536685943603516,0.6548141837120056,1000.8999633789063,328.5943291585124,
1557947973269,,27.238360603866234,0.0,,,,,,,
1557947973290,,,,4.553253838071848,,-2.513911724090576,1.3299790620803833,,,37.670413211797225
1557947973291,,,,,-9.710882186889648,,,,323.95223548534284,
1557947973329,,27.12022390434743,,,,,,,,
1557947973337,1.0,,,5.068524390678353,,,,,,
1557947973369,,27.22366090150001,0.0,,,,,,,
1557947973380,,,,,-10.400412559509277,-2.628833532333374,0.45848962664604187,,329.0052538295479,37.655544811436236
1557947973409,,29.93018085124085,,,,,,,,
1557947973424,,,,5.391678240064476,,,,,,38.5434821767643
1557947973425,2.0,,,,,,,,,
1557947973426,,,,,-11.171344757080078,-3.399766445159912,1.8375498056411743,1000.8299560546875,325.52814112687776,
1557947973449,,45.554069830096246,,,,,,,,
1557947973460,,,39.81026785714286,,,,,,,
1557947973468,2.0,,,5.318648247468322,,,,,,
1557947973486,,,,,,,,,,39.14383727832452
1557947973487,,,,,-12.196063041687012,-5.118803024291992,2.718616008758545,,323.0437383634611,
1557947973489,,43.00187745232181,39.81026785714286,,,,,,,
1557947973529,,39.993740066719155,39.81026785714286,,,,,,,
1557947973533,,,,5.455989751912446,,,,,,
1557947973561,,,,,,-2.738966703414917,3.09689998626709,,,39.30915971935545
1557947973562,,,,,-9.461885452270508,,,,323.5900647046029,
1557947973589,,36.86312727098202,39.81026785714286,,,,,,,
1557947973609,,,,4.71841732646132,,,,,,
1557947973610,2.0,,,,-11.238382339477539,-1.9776105880737305,0.10893617570400238,,,39.518476820156444
1557947973622,,,,,,,,1000.8499755859375,322.2090824166964,
1557947973629,,36.66168163620439,,,,,,,,
1557947973666,,,,5.373203420906509,,,,,,
1557947973669,,37.1881219596484,,,,,,,,
1557947973677,,,99.35546875,,,,,,,
1557947973678,,,99.35546875,,,,,,,
1557947973693,,,,,-12.042834281921387,-3.0166940689086914,3.250128746032715,,319.2915056410229,39.13732237530355
1557947973709,,39.82697942923057,99.35546875,,,,,,,
1557947973735,,,,4.395957233918615,,,,,,
1557947973736,1.0,,,,-11.281478881835938,-4.98472785949707,3.556586742401123,,320.42503359039443,38.28237257402212
1557947973749,,44.47752113869011,99.35546875,,,,,,,
1557947973783,,,,3.5348651576459402,,,,,,
1557947973801,0.0,,,,-10.405200958251953,-5.453991413116455,3.4847605228424072,1000.8200073242188,329.6044150990143,37.531054561465055
1557947973809,,48.6760383106738,,,,,,,,
1557947973849,,40.541858864434005,,,,,,,,
1557947973855,,,,4.08111322474619,,,,,,
1557947973865,,,67.158203125,,,,,,,
1557947973881,,,,,-7.95832633972168,-5.731719017028809,3.3267433643341064,,326.79561933115707,36.952945198508864
1557947973882,0.0,,,,,,,,,
1557947973889,,37.115455985069204,67.158203125,,,,,,,
1557947973925,,,,5.4546854579181945,,,,,,
1557947973929,,39.36813321381022,67.158203125,,,,,,,
1557947973936,,,75.185546875,,,,,,,
1557947973943,,,,,-6.909666061401367,-5.760449409484863,3.049015760421753,,323.7731889064401,36.28457021420087
1557947973969,,37.453530525060884,75.185546875,,,,,,,
1557947973987,,,,7.168180024985803,,,,,,
1557947974009,,43.155400339448214,75.185546875,,,,,,,
1557947974014,2.0,,,,-7.105990409851074,-6.521805286407471,3.116053581237793,1000.8099975585938,306.0332034619631,36.16821840276931
1557947974016,,,53.5693359375,,,,,,,
1557947974036,,,,7.9088530948166325,,,,,,
1557947974062,,,,,-7.714118003845215,-7.383718013763428,2.364274263381958,,299.4434881771536,35.845363047322095
1557947974069,,45.321888948581154,53.5693359375,,,,,,,
1557947974106,,,,7.854798821896758,,,,,,
1557947974109,,41.00457513788622,53.5693359375,,,,,,,
1557947974128,,,,,-9.715670585632324,-8.02536392211914,2.033874273300171,,290.79034200823196,35.78896496885842
1557947974149,,37.667879596858775,,,,,,,,
1557947974155,2.0,,,,,,,,,
1557947974173,,,,7.2532862088598655,,,,,,
1557947974189,,39.73986521279058,,,,,,,,
1557947974200,,,,,,,,,,35.6730995115762
1557947974201,,,,,-9.289502143859863,-5.061342239379883,2.5989060401916504,1000.8599853515625,300.40750790679834,
1557947974229,,42.83254007921333,,,,,,,,
1557947974239,,,95.3662109375,,,,,,,
1557947974247,,,,2.1668656575695,,,,,,
1557947974264,,,,,-11.109095573425293,-5.396530628204346,1.9572598934173584,,303.22686314711245,36.07007158945468
1557947974289,,38.34001527298442,95.3662109375,,,,,,,
1557947974291,2.0,,,2.792463862527669,,,,,,
1557947974310,,,,,-11.372458457946777,-4.357447147369385,2.072181463241577,,313.1058814229842,36.272579753329794
1557947974329,,37.08142161429202,95.3662109375,,,,,,,
1557947974337,,,51.50704520089286,,,,,,,
1557947974369,,39.412955361132504,51.50704520089286,,,,,,,
1557947974381,0.0,,,3.875268127024948,-10.54406452178955,-2.82515811920166,1.2342109680175781,1000.8699951171875,322.48400436097853,36.9501025398494
1557947974409,,37.08648850216477,51.50704520089286,,,,,,,
1557947974418,,,44.4775390625,,,,,,,
1557947974426,0.0,,,4.828771257820312,,,,,,
1557947974443,,,,,-9.227252960205078,-1.4077905416488647,0.11851298063993454,,328.5523917970085,37.34862825052676
1557947974449,,31.5384422902397,44.4775390625,,,,,,,
1557947974489,,30.048451136934933,44.4775390625,,,,,,,
1557947974490,,,,6.0465762830972745,,,,,,
1557947974516,,,,,-8.810662269592285,-1.7812861204147339,1.1288660764694214,,325.56397571435826,38.23624012652615
1557947974548,,30.043334672106035,,,,,,,,
1557947974561,,,,5.884493685116484,,,,,,
1557947974562,0.0,,,,,,,,,
1557947974581,1.0,,,,-9.730035781860352,-2.6431987285614014,0.9373299479484558,,325.60613164191557,38.21897591000883
1557947974582,,,,,,,,1000.7699584960938,,
1557947974589,,29.528632965806278,0.0,,,,,,,
1557947974611,,,,5.398821009747229,,,,,,
1557947974629,,29.16268291849471,,,,,,,,
1557947974633,,,,,-10.500968933105469,-3.687070608139038,1.6172832250595093,,324.5512806415934,39.037929966171376
1557947974669,,29.956623828475827,0.0,,,,,,,
1557947974699,,,,4.925519290404958,-10.807426452636719,-4.050989151000977,1.6891093254089355,,,39.6959694985592
1557947974700,1.0,,,,,,,,321.9729900978457,
1557947974709,,49.20635144296068,,,,,,,,
1557947974743,,,,4.500944038550044,,,,,,
1557947974749,,43.25004028758379,,,,,,,,
1557947974762,,,162.53313337053572,,,,,,,
1557947974766,,,,,-11.286267280578613,-5.884947776794434,2.033874273300171,,,39.27200152256192
1557947974767,,,,,,,,1000.8200073242188,318.4360927493705,
1557947974809,,41.56873337841154,162.53313337053572,,,,,,,
1557947974815,,,,4.0205688916677556,,,,,,
1557947974840,,,,,,,1.459265947341919,,,39.90664162870065
1557947974841,1.0,,,,-8.652645111083984,-2.7533318996429443,,,319.01987926301524,
1557947974849,,39.821554811518524,162.53313337053572,,,,,,,
1557947974884,,,,3.2893807082839714,,,,,,39.78014612504753
1557947974885,,,,,-11.094730377197266,-4.261679172515869,1.2342109680175781,,316.41872124592635,
1557947974889,,38.818302493149375,,,,,,,,
1557947974929,,38.373521513842846,,,,,,,,
1557947974947,,,,3.297717813813216,,,,,,
1557947974969,,36.95961801838621,,,,,,,,
1557947974974,0.0,,,,-12.392388343811035,-3.332728862762451,2.5462334156036377,1000.739990234375,318.03303645625886,38.5103891065955
1557947974982,,,326.3409423828125,,,,,,,
1557947974996,,,,4.3392084104726525,,,,,,
1557947975018,,,,,-11.109095573425293,-3.9025487899780273,3.757699489593506,,321.75498070482263,37.68673427379579
1557947975028,,37.36394385583929,,,,,,,,
1557947975029,,,326.3409423828125,,,,,,,
1557947975062,,,,3.7656488061682656,,,,,,
1557947975069,,46.16790896301204,326.3409423828125,,,,,,,
1557947975080,,,,,-8.983044624328613,-4.879383087158203,2.9053637981414795,,325.8160916570018,37.136102372111424
1557947975106,0.0,,,,,,,,,
1557947975109,,36.89874348465408,,,,,,,,
1557947975124,,,,3.4097571560032014,,,,,,
1557947975149,,40.087258027177555,,,,,,,,
1557947975151,1.0,,,,-8.192957878112793,-5.468356609344482,3.005920171737671,1000.7699584960938,333.93918441047913,36.29545574380847
1557947975156,,,105.400390625,,,,,,,
1557947975189,,37.35852505041153,105.400390625,,,,,,,
1557947975197,,,,5.773049967436076,,,,,,
1557947975217,,,,,-7.230489253997803,-6.421248912811279,3.1687259674072266,,330.00682935434395,35.43853866911875
1557947975229,,39.98526852019003,105.400390625,,,,,,,
1557947975237,,,53.8330078125,,,,,,,
1557947975244,1.0,,,,,,,,,
1557947975261,,,,7.408910603411658,,,,,,
1557947975288,,46.531471183784674,,,,,3.0394389629364014,,,35.0044293194924
1557947975289,,,53.8330078125,,-7.417236804962158,-7.0341644287109375,,,323.04039498586235,
1557947975329,,43.085210063973946,53.8330078125,,,,,,,
1557947975335,2.0,,,7.718827096654444,,,,,,34.4955086059498
1557947975336,,,,,-9.437943458557129,-7.857769966125488,1.9716250896453857,1000.8099975585938,300.60556290216124,
1557947975338,,,53.8330078125,,,,,,,
1557947975369,,38.62672698157296,53.8330078125,,,,,,,
1557947975381,,,,7.392680037689203,,,,,,
1557947975382,2.0,,,,,,,,,
1557947975402,,,,,-8.710105895996094,-6.703764915466309,2.292448043823242,,308.1680678795098,34.16460138160677
1557947975409,,36.924534002538834,53.8330078125,,,,,,,
1557947975445,,,,5.461536642014354,,,,,,
1557947975449,,35.9569739695603,,,,,,,,
1557947975472,,,,,-10.290278434753418,-4.003105163574219,1.8279730081558228,,322.2250070027462,33.86045047926767
1557947975489,,35.937863506974715,,,,,,,,
1557947975499,,,87.099609375,,,,,,,
1557947975518,2.0,,,1.4752880429416508,,,,,,
1557947975536,1.0,,,,-11.520898818969727,-3.8546648025512695,1.1049240827560425,1000.7999877929688,329.353432967773,33.70904985679325
1557947975549,,38.896308010193934,87.099609375,,,,,,,
1557947975585,,,,3.278285694820205,,,,,,
1557947975588,,,,,,,,,,34.045117563422025
1557947975589,,43.16802371866332,87.099609375,,,,,,,
1557947975610,,,,,-10.467450141906738,-3.2561142444610596,1.2198457717895508,,333.56700569505784,
1557947975629,,32.10184705472407,87.099609375,,,,,,,
1557947975656,,,,3.2183714708873463,,,,,,
1557947975657,1.0,,,,-9.806650161743164,-2.9735984802246094,1.2437877655029297,,333.81728943945654,34.43152721028231
1557947975669,,31.24668236211679,,,,,,,,
1557947975705,,,,3.4983903725820262,,,,,,
1557947975709,,36.297079041749754,0.0,,,,,,,
1557947975724,,,,,,,,,,35.09586970489575
1557947975725,0.0,,,,-6.799532890319824,-4.084507942199707,-0.6955155730247498,1000.7899780273438,332.8646761257257,
1557947975768,,30.05526596035963,,,,,,,,
1557947975773,,,,3.231120513151407,,,,,,
1557947975774,0.0,,,,,,,,,
1557947975800,,,,,-7.95832633972168,-3.60566782951355,-0.6619967818260193,,333.9375041839433,35.54659008191963
1557947975809,,26.04421819589043,,,,,,,,
1557947975816,,,39.3212890625,,,,,,,
1557947975843,,,,3.785807487594936,,,,,,
1557947975846,,,,,-9.107542991638184,-4.927267074584961,0.6165069341659546,,,35.853870776897054
1557947975847,,,,,,,,,331.23454561236997,
1557947975849,,23.64247993508811,39.3212890625,,,,,,,
1557947975889,,26.12454369715158,39.3212890625,,,,,,,
1557947975892,,,,3.1189146682597366,,,,,,
1557947975912,0.0,,,,-10.247182846069336,-4.606443881988525,2.560598611831665,1000.7899780273438,329.39285681966237,36.292837788328434
1557947975929,,41.989181921418236,,,,,,,,
1557947975956,,,,4.869927922210892,,,,,,
1557947975969,,40.47058031178749,,,,,,,,
1557947975979,,,157.9833984375,,,,,,,
1557947975982,,,,,-11.635820388793945,-5.612008571624756,2.871845006942749,,331.478765856333,37.11522723289359
1557947976029,,37.028044948167164,157.9833984375,,,,,,,
1557947976031,,,,5.8422490604623025,,,,,,
1557947976052,,,,,,-3.270479440689087,3.599682331085205,,,38.780666889906506
1557947976053,0.0,,,,-10.194510459899902,,,,330.79041597668447,
1557947976069,,34.1358472872441,157.9833984375,,,,,,,
1557947976078,,,181.0791015625,,,,,,,
1557947976082,,,,6.224769937331425,,,,,,
1557947976100,,,,,-10.606313705444336,-1.5658079385757446,1.5502456426620483,1000.7799682617188,328.0985871983637,39.284221435421536
1557947976109,,33.93633872929698,181.0791015625,,,,,,,
1557947976149,,35.07620269919836,181.0791015625,,,,,,,
1557947976150,,,,6.756816106999553,,,,,,
1557947976177,,,,,,,,,,38.44398615700531
1557947976178,0.0,,,,-11.860875129699707,-2.782062292098999,1.8471266031265259,,325.0464488658518,
1557947976189,,32.75149447913581,,,,,,,,
1557947976223,,,,5.680985629033501,,,,,,
1557947976229,,39.71847919249351,,,,,,,,
1557947976236,,,202.5341796875,,,,,,,
1557947976243,,,,,,,,,,37.196774694638734
1557947976244,,,,,-11.267112731933594,-4.357447147369385,3.8582561016082764,,331.39725437877803,
1557947976271,,,,4.058516207001055,,,,,,
1557947976289,,45.68896223041723,202.5341796875,,,,,,,
1557947976294,,,,,-9.93593692779541,-4.754884719848633,3.154360771179199,1000.7799682617188,338.01447142028064,34.44604705034258
1557947976321,0.0,,,,,,,,,
1557947976329,,42.17507714606043,202.5341796875,,,,,,,
1557947976343,,,,2.321809536202292,,,,,,
1557947976370,,40.93870231710557,202.5341796875,,,,,,,
1557947976373,,,,,-8.87291145324707,-5.477933406829834,3.3458969593048096,,,31.902038304611388
1557947976374,,,,,,,,,349.2102758898236,
1557947976402,,,,4.49236349009882,,,,,,
1557947976409,,42.671586088923796,,,,,,,,
1557947976426,,,,,,,,,,29.398979233518286
1557947976427,,,,,-7.747636795043945,-5.760449409484863,3.8774096965789795,,355.2388241130854,
1557947976444,0.0,,,,,,,,,
1557947976449,,45.23833441608721,,,,,,,,
1557947976456,,,66.943359375,,,,,,,
1557947976472,,,,6.043647318680803,,,,,,
1557947976494,,,,,-9.21288776397705,-4.371812343597412,5.361814498901367,1000.7699584960938,341.4565623279815,27.91415480463124
1557947976508,,41.083712173123004,,,,,,,,
1557947976509,,,66.943359375,,,,,,,
1557947976541,,,,5.914394354233794,,,,,,
1557947976549,,42.17133117983205,66.943359375,,,,,,,
1557947976557,,,45.2734375,,,,,,,
1557947976568,,,,,,,3.3506853580474854,,,27.73643812864898
1557947976569,0.0,,,,-7.876923561096191,-4.5394062995910645,,,345.726146021555,
1557947976589,,47.710529873509216,45.2734375,,,,,,,
1557947976593,,,,5.094210925632544,,,,,,
1557947976614,,,,,-11.57357120513916,-2.6623523235321045,4.294000625610352,,338.5310796083437,27.658814124774654
1557947976629,,46.13353031667381,45.2734375,,,,,,,
1557947976638,,,65.2392578125,,,,,,,
1557947976663,,,,3.826917309898629,,,,,,
1557947976669,,42.98488829250936,65.2392578125,,,,,,,
1557947976685,,,,,,,,,,27.918095557230565
1557947976686,2.0,,,,-12.741941452026367,-0.23942017555236816,6.333860397338867,1000.719970703125,321.4641478348689,
1557947976709,,38.58242574166891,65.2392578125,,,,,,,
1557947976716,,,43.06640625,,,,,,,
1557947976723,2.0,,,4.791185614722786,,,,,,
1557947976742,,,,,-10.156203269958496,2.097320795059204,9.953893661499023,,317.3537741433011,28.040864202668875
1557947976773,,35.95712488507469,43.06640625,,,,,,,
1557947976792,,,,5.200124064212615,,,,,,
1557947976809,,34.488834564763145,43.06640625,,,,,,,
1557947976818,,,,,-8.729259490966797,-0.20111294090747833,8.603564262390137,,,27.884405093896664
1557947976819,,,,,,,,,313.38365497124494,
1557947976849,,33.1924056215003,,,,,,,,
1557947976865,1.0,,,3.3501680759000414,-6.8809356689453125,-1.2976573705673218,8.555679321289063,1000.719970703125,320.38802079528216,27.96479981420173
1557947976889,,31.612901529639824,,,,,,,,
1557947976899,,,98.92578125,,,,,,,
1557947976912,,,,3.0800519614357227,,,,,,
1557947976929,,30.182493910095864,98.92578125,,,,,,,
1557947976932,,,,,-4.218583583831787,-1.115697979927063,8.26358699798584,,307.3672623502717,28.287453804871827
1557947976969,,28.796689072216047,98.92578125,,,,,,,
1557947976982,,,,2.0995515753308767,,,,,,
1557947977009,,,,,,,7.937975883483887,,,28.025346187934108
1557947977010,1.0,,,,-2.75812029838562,-0.6847416758537292,,,310.3664393959593,
1557947977029,,29.1005465338463,98.92578125,,,,,,,
1557947977058,,,,3.0747825173484546,,0.6416460275650024,6.525396823883057,,,28.61503153109843
1557947977059,,,,,-1.9249382019042969,,,1000.719970703125,327.45226347267834,
1557947977069,,28.417282659675806,,,,,,,,
1557947977105,,,,3.6491539065937997,,,,,,
1557947977109,,30.464173202505158,0.0,,,,,,,
1557947977128,,,,,-1.8579005002975464,1.115697979927063,6.884527206420898,,,29.139149779913637
1557947977129,,,,,,,,,331.51673317038177,
1557947977149,,27.657880375893047,,,,,,,,
1557947977157,1.0,,,,,,,,,
1557947977177,,,,3.3109380530320442,,,,,,
1557947977181,,,,,-1.335964560508728,2.10210919380188,7.3920979499816895,,338.83368601687926,29.760880697867794
1557947977189,,30.1662099013719,0.0,,,,,,,
1557947977248,,26.248356789455446,,,,,,,,
1557947977249,,,,2.513291407959782,-0.9241618514060974,3.112462282180786,7.061697959899902,1000.7599487304688,353.37220982566225,30.59248341791768
1557947977289,,41.1141291081946,,,,,,,,
1557947977296,1.0,,,2.6993356063875913,,,,,,
1557947977300,,,283.65745907738096,,,,,,,
1557947977316,,,,,,3.485957622528076,7.511807918548584,,,30.968049219172695
1557947977317,,,,,-0.6368576288223267,,,,347.2086735856258,
1557947977329,,39.0578340433787,283.65745907738096,,,,,,,
1557947977363,,,,2.1747075552933097,,,,,,
1557947977369,,37.178813072112135,283.65745907738096,,,,,,,
1557947977379,,,324.0375627790179,,,,,,,
1557947977390,,,,,-0.21547815203666687,3.869029998779297,8.153453826904297,,344.315558278691,30.614703483921218
1557947977409,,34.78625182103014,324.0375627790179,,,,,,,
1557947977439,0.0,,,1.572703576548394,0.9528923034667969,1.8148049116134644,10.356119155883789,1000.7599487304688,349.4798421120229,30.922646192867703
1557947977449,,33.92348363139671,324.0375627790179,,,,,,,
1557947977459,,,240.821533203125,,,,,,,
1557947977484,,,,1.6591228544976795,,,,,,
1557947977504,,,,,,,14.225149154663086,,,31.529826814651944
1557947977505,,,,,1.0534487962722778,1.0965443849563599,,,325.63230492681504,
1557947977509,,33.677755866763725,240.821533203125,,,,,,,
1557947977549,,35.267971482228035,240.821533203125,,,,,,,
1557947977551,,,,5.0304547741715515,,,,,,
1557947977560,,,269.4273158482143,,,,,,,
1557947977578,0.0,,,,1.139639973640442,0.3687070608139038,12.132616996765137,,320.9834971776914,31.16231771416568
1557947977589,,34.22054626453054,269.4273158482143,,,,,,,
1557947977623,,,,3.6753204413601392,,,,,,
1557947977629,,31.9473903345486,269.4273158482143,,,,,,,
1557947977644,,,,,0.15801730751991272,2.2218191623687744,8.857349395751953,1000.6599731445313,339.7189246370898,31.734682057941026
1557947977669,,31.32491327535389,,,,,,,,
1557947977675,,,,1.0667703866201834,,,,,,
1557947977693,,,,,,,,,,31.74728428737991
1557947977694,,,,,-1.4652514457702637,1.2832920551300049,12.855666160583496,,352.9205960101937,
1557947977709,,28.72733672863359,,,,,,,,
1557947977719,0.0,,,,,,,,,
1557947977737,,,,3.9211733976986194,,,,,,
1557947977764,,,,,-1.6855180263519287,2.3702597618103027,11.438298225402832,,0.6171426495910168,32.80899338642455
1557947977769,,28.942214197528454,0.0,,,,,,,
1557947977809,,,,2.6379893314530496,,,,,,
1557947977811,,27.50381819678946,,,,,,,,
1557947977826,,,,,,,,,,32.02967445964671
1557947977827,1.0,,,,-0.6799532771110535,2.1308395862579346,6.003460884094238,1000.72998046875,5.870340124629934,
1557947977849,,26.467298760327417,0.0,,,,,,,
1557947977854,1.0,,,,,,,,,
1557947977874,,,,3.551184636568204,,,,,,
1557947977889,,25.502946135900967,,,,,,,,
1557947977901,,,,,-1.3455413579940796,0.22505496442317963,5.093664169311523,,26.554966115592947,31.97342604878494
1557947977929,,40.109984345309016,,,,,,,,
1557947977939,,,196.36433919270831,,,,,,,
1557947977950,,,,6.050328887323018,,,,,,33.2800240395991
1557947977951,,,,,-3.3279404640197754,1.7094600200653076,2.785653591156006,,57.242667962096334,
1557947977989,,42.95298239782306,196.36433919270831,,,,,,,
1557947977996,1.0,,,5.768924255053699,,,,,,
1557947978014,,,,,-6.531382083892822,1.091755986213684,1.5310919284820557,1000.739990234375,78.84590060868629,34.09486916611636
1557947978029,,47.981491199868714,196.36433919270831,,,,,,,
1557947978063,,,,5.006261528849572,,,,,,
1557947978069,,43.75307155759653,,,,,,,,
1557947978090,,,,,-7.857769966125488,-2.2457611560821533,-0.2693476974964142,,95.5926365289655,34.04614635680467
1557947978109,,40.01714292043427,,,,,,,,
1557947978117,,,1193.2177734375,,,,,,,
1557947978137,1.0,,,6.680363349854855,,,,,,
1557947978149,,37.95682151140119,1193.2177734375,,,,,,,
1557947978165,,,,,-10.759542465209961,-2.4803929328918457,1.3060370683670044,,115.17877770986732,34.984855260240224
1557947978184,,,,5.049586084606786,,,,,,
1557947978189,,36.04427331276502,1193.2177734375,,,,,,,
1557947978202,,,1207.734375,,,,,,,
1557947978208,0.0,,,,-13.010091781616211,-8.413225173950195,-2.050633668899536,1000.739990234375,128.02471063288218,34.59768743669738
1557947978249,,35.42732800258074,1207.734375,,,,,,,
1557947978254,,,,6.823416826004145,,,,,,
1557947978255,0.0,,,,,,,,,
1557947978281,,,,,-17.68836212158203,-8.978256225585938,0.7553706169128418,,141.80790943456284,34.15772226411653
1557947978289,,32.269996232998466,1207.734375,,,,,,,
1557947978325,,,,10.13553664530788,,,,,,
1557947978331,,30.4184073141017,,,,,,,,
1557947978345,,,,,-16.27578353881836,-3.7253777980804443,0.41539400815963745,,131.9702923503451,32.61947261669906
1557947978369,,28.788026532709907,,,,,,,,
1557947978376,,,,9.390469414918487,,,,,,
1557947978390,0.0,,,,,,,,,
1557947978409,,27.61654988117604,0.0,,,,,,,
1557947978418,,,,,-13.211204528808594,-2.1978771686553955,0.48243165016174316,1000.7899780273438,115.64743796995691,31.73405224829914
1557947978449,,26.513567712018045,,,,,,,,
1557947978464,,,,7.967100443928304,-11.195286750793457,-3.0597896575927734,0.1041477769613266,,90.30905490404291,31.413532578619584
1557947978508,,,,5.989742730272605,,,,,,
1557947978509,,25.895220043732316,0.0,,,,,,,
1557947978528,0.0,,,,-9.8784761428833,-3.3470940589904785,-1.1073182821273804,,70.5437168800766,31.712458778989095
1557947978549,,25.663779469486393,,,,,,,,
1557947978574,,,,4.679444372010133,,,,,,
1557947978589,,28.26987064183918,0.0,,,,,,,
1557947978601,1.0,,,,-9.21288776397705,-3.1316158771514893,-0.6428431272506714,,64.19903804683588,31.13518972015287
1557947978602,,,,,,,,1000.7799682617188,,
1557947978629,,43.25647715107192,,,,,,,,
1557947978648,,,,3.9140196167810495,,,,,,
1557947978665,,,,,-9.610325813293457,-3.97916316986084,1.1671733856201172,,,31.13518972015287
1557947978666,1.0,,,,,,,,66.88639646634488,
1557947978669,,40.72604673946759,,,,,,,,
1557947978678,,,1684.27734375,,,,,,,
1557947978696,,,,3.1172066212309057,,,,,,
1557947978729,,40.25982067185528,1684.27734375,,,,,,,
1557947978738,,,,,,,,,,31.120571877954387
1557947978739,,,,,-8.604761123657227,-4.271255970001221,1.6699557304382324,,71.76082243922701,
1557947978762,,,,2.3728895347144836,,,,,,
1557947978769,,36.976146118065884,1684.27734375,,,,,,,
1557947978788,0.0,,,,-10.079588890075684,-6.114790916442871,2.9436709880828857,1000.7699584960938,84.20747616374126,31.61724306652636
1557947978789,0.0,,,,,,,,,
1557947978809,,36.483378992172405,,,,,,,,
1557947978840,,,,3.6421243748048817,,,,,,
1557947978841,,,,,-10.338163375854492,-5.39174222946167,3.1974563598632813,,87.13119327947857,31.916610600062864
1557947978849,,41.71895221763673,,,,,,,,
1557947978857,,,64.501953125,,,,,,,
1557947978889,,40.22559385587086,64.501953125,,,,,,,
1557947978904,,,,3.9495428086320064,,-3.754108190536499,3.398569345474243,,,32.22250843581612
1557947978905,,,,,-12.224793434143066,,,,79.14831406437781,
1557947978929,,39.98998407871718,64.501953125,,,,,,,
1557947978930,0.0,,,,,,,,,
1557947978951,,,,5.564869236810757,,,,,,
1557947978976,,,,,-13.043610572814941,-3.270479440689087,3.2549171447753906,1000.7699584960938,121.38206479709962,32.96938042523365
1557947978989,,38.796512707999106,,,,,,,,
1557947979025,,,,6.05590493052755,,,,,,
1557947979029,,35.834061978431734,,,,,,,,
1557947979038,,,45.80078125,,,,,,,
1557947979044,,,,,,-4.8267107009887695,4.466383457183838,,,33.26409475695979
1557947979045,,,,,-12.583924293518066,,,,142.14415964740257,
1557947979069,,31.960520551910466,45.80078125,,,,,,,
1557947979072,0.0,,,,,,,,,
1557947979091,,,,6.63261752970953,,,,,,
1557947979095,,,,,-11.291055679321289,-6.473921298980713,4.63397741317749,,,33.460124766267676
1557947979096,,,,,,,,,189.2732881856566,
1557947979109,,31.500939746687415,45.80078125,,,,,,,
1557947979149,,46.27349563842304,45.80078125,,,,,,,
1557947979165,,,,7.482835073670012,-9.62947940826416,-7.144298076629639,3.6092591285705566,1000.7699584960938,204.52469079094487,33.299551841652836
1557947979189,,40.47344890912495,,,,,,,,
1557947979210,0.0,,,8.72957210160661,,,,,,
1557947979232,,,,,-9.107542991638184,-7.4316020011901855,3.776853084564209,,219.3516107996952,33.1039274691916
1557947979233,,,,,,,,,222.23698323343206,
1557947979249,,41.87359695932254,,,,,,,,
1557947979256,,,79.4921875,,,,,,,
1557947979257,,,79.4921875,,,,,,,
1557947979279,,,,9.594370669687683,,,,,,
1557947979289,,43.39745033276281,79.4921875,,,,,,,
1557947979308,,,,,-8.652645111083984,-7.95832633972168,2.3307554721832275,,213.99970679250498,33.12567030663924
1557947979329,,43.79058767569824,79.4921875,,,,,,,
1557947979330,0.0,,,,,,,,,
1557947979340,,,95.068359375,,,,,,,
1557947979356,,,,9.556192150152933,,,,,,33.02393073777395
1557947979357,,,,,-7.603984832763672,-8.068459510803223,1.2437877655029297,1000.719970703125,207.9872142095478,
1557947979369,,42.83546274873658,95.068359375,,,,,,,
1557947979404,,,,9.358559396198112,,,,,,
1557947979409,,43.62886325853529,95.068359375,,,,,,,
1557947979424,,,,,-6.9240312576293945,-5.128379821777344,0.15682020783424377,,198.8524509116811,33.505522453266316
1557947979468,,36.87588037297951,,,,,,,,
1557947979470,0.0,,,6.147379879951111,,,,,,
1557947979496,,,,,,,-2.1368250846862793,,,33.61993536262722
1557947979497,,,,,-9.576807022094727,-4.831499099731445,,,185.53020791670622,
1557947979509,,39.27210927767234,,,,,,,,
1557947979524,,,64.521484375,,,,,,,
1557947979545,,,,4.355968826392575,,,,,,
1557947979546,,,,,-8.96389102935791,-6.718130111694336,-1.0977414846420288,1000.7599487304688,178.87953979637243,32.9795401234948
1557947979549,,41.67494007914334,64.521484375,,,,,,,
1557947979589,,41.15204401418838,64.521484375,,,,,,,
1557947979595,0.0,,,4.299587655811865,,,,,,
1557947979599,,,64.5703125,,,,,,,
1557947979619,,,,,-9.44752025604248,-5.286397457122803,0.9277531504631042,,193.86970496875165,31.885577303508683
1557947979629,,46.27105777134407,64.5703125,,,,,,,
1557947979666,,,,1.3504575060105228,,,,,,
1557947979669,,46.15412941845858,64.5703125,,,,,,,
1557947979679,,,88.359375,,,,,,,
1557947979694,,,,,-10.467450141906738,-3.9456443786621094,0.39624038338661194,,187.63199372810254,31.049960685250536
1557947979718,,,,2.8561244477905876,,,,,,
1557947979719,0.0,,,,,,,,,
1557947979729,,35.29007570317075,88.359375,,,,,,,
1557947979743,,,,,,,,,,29.447750456891598
1557947979744,,,,,-10.199298858642578,-3.1507694721221924,1.646013617515564,1000.7599487304688,194.79445794085814,
1557947979769,,34.23880974724605,88.359375,,,,,,,
1557947979793,,,,4.6217933054339735,,,,,,
1557947979809,,34.239434452051775,88.359375,,,,,,,
1557947979812,,,,,-11.05642318725586,-3.093308687210083,2.2445640563964844,,201.05205869237034,28.203723152136707
1557947979817,,,0.0,,,,,,,
1557947979849,,31.03929623881716,,,,,,,,
1557947979865,,,,6.745788673345723,-10.975020408630371,-4.031835556030273,1.5885528326034546,,189.91155570321598,27.275447217839552
1557947979866,0.0,,,,,,,,,
1557947979889,,31.816006579681392,,,,,,,,
1557947979897,,,100.8251953125,,,,,,,
1557947979913,,,,6.046900234120475,,,,,,
1557947979929,,35.06796733071886,100.8251953125,,,,,,,
1557947979940,,,,,,,,,,27.147559803075602
1557947979941,,,,,-11.659762382507324,-4.07014274597168,1.1623848676681519,1000.739990234375,212.1491899802951,
1557947979988,0.0,,,6.3270063753778745,,,,,,
1557947979989,,33.09499642144247,100.8251953125,,,,,,,26.77797570456289
1557947980002,,,147.07414899553572,,,,,,,
1557947980010,,,,,-11.1474027633667,-6.0621185302734375,2.100912094116211,,204.9590771617793,
1557947980029,,33.52575216171295,147.07414899553572,,,,,,,
1557947980037,,,,5.072207715302848,,,,,,
1557947980059,,,,,-10.256759643554688,-2.5282769203186035,0.568622887134552,,285.4541406059436,26.51131797432521
1557947980069,,32.60228701755818,,,,,,,,
1557947980078,,,167.5658743722098,,,,,,,
1557947980109,,35.521338898391264,167.5658743722098,6.03177019949384,,,,,,
1557947980135,,,,,-11.808202743530273,-2.3271639347076416,0.2621650993824005,,,26.2842158126682
1557947980136,0.0,,,,,,,1000.699951171875,53.29005114978827,
1557947980149,,34.62182825318392,167.5658743722098,,,,,,,
1557947980183,,,,6.374775602093832,-13.230358123779297,-3.7924153804779053,2.8335378170013428,,281.51088798298764,25.6206951354969
1557947980209,,32.84745882484719,,,,,,,,
1557947980237,,,,5.601672140881308,,,,,,
1557947980249,,48.82791837192968,,,,,,,,
1557947980255,,,43.06640625,,-12.22000503540039,-6.081272125244141,3.5661635398864746,,214.07774853396154,25.750534766116363
1557947980257,0.0,,,,,,,,,
1557947980289,,39.47383399510176,43.06640625,,,,,,,
1557947980305,,,,4.8766093409817834,,,,,,
1557947980329,,37.306053618411816,43.06640625,,,,,,,
1557947980331,,,,,,,,,,26.293916414666842
1557947980332,,,,,-9.734824180603027,-7.139509677886963,3.930082082748413,1000.75,209.58202239961076,
1557947980336,,,62.96875,,,,,,,
1557947980355,,,,5.927125560786617,,,,,,
1557947980369,,39.093992801060004,62.96875,,,,,,,
1557947980382,,,,,-8.054094314575195,-6.866570472717285,3.116053581237793,,208.0461724024634,27.853008140679215
1557947980383,0.0,,,,,,,,,
1557947980409,,34.82420957739849,62.96875,,,,,,,
1557947980416,,,0.0,,,,,,,
1557947980429,,,,7.7572929769239725,,,,,,
1557947980454,,,,,-7.42681360244751,-7.177816867828369,3.5470097064971924,,211.17086100433914,30.547341504995877
1557947980469,,26.875628659242437,,,,,,,,
1557947980504,,,,9.015643617290136,,,3.37941575050354,,,34.27725246921134
1557947980505,,,,,-7.173028469085693,-7.843404769897461,,1000.7099609375,201.107929639781,
1557947980507,0.0,,,,,,,,,
1557947980509,,43.91314709759611,,,,,,,,
1557947980549,,44.19505051153584,,,,,,,,
1557947980550,,,,9.785470070441773,,,,,,
1557947980562,,,102.197265625,,,,,,,
1557947980578,,,,,,,2.3738510608673096,,,38.0792589084692
1557947980579,,,,,-7.728483200073242,-8.647856712341309,,,194.6649848749513,
1557947980589,,39.70855033311467,102.197265625,,,,,,,
1557947980626,,,,9.484192395534151,,,,,,
1557947980629,,37.76452563067759,102.197265625,,,,,,,
1557947980630,,,,,,-6.143521785736084,1.521515130996704,,,40.35604086164921
1557947980631,,,,,-7.790732383728027,,,,188.85948800498056,
1557947980639,,,97.55859375,,,,,,,
1557947980646,0.0,,,,,,,,,
1557947980674,,,,5.866747965393871,,,,,,
1557947980689,,37.250169859162774,97.55859375,,,,,,,
1557947980696,1.0,,,,,,,,,40.33931127328848
1557947980697,,,,,-10.103530883789063,-5.30076265335083,1.0570400953292847,1000.699951171875,188.45205356061092,
1557947980729,,36.61375648095995,97.55859375,,,,,,,
1557947980739,,,105.947265625,,,,,,,
1557947980745,,,,2.047816285796838,,,,,,
1557947980769,,36.872068738342655,105.947265625,,,,,,,
1557947980772,,,,,-12.540828704833984,-5.410895824432373,3.1974563598632813,,190.8090425601556,38.99038370959256
1557947980774,1.0,,,,,,,,,
1557947980809,,40.00979743609094,105.947265625,,,,,,,
1557947980817,,,53.90625,,,,,,,
1557947980818,,,,4.685607528134942,,,,,,
1557947980842,,,,,,-3.9839515686035156,0.9900023937225342,,,36.076585453536175
1557947980843,,,,,-11.362881660461426,,,,183.36678647823965,
1557947980849,,32.6418426084892,53.90625,,,,,,,
1557947980870,,,,3.921222282897838,,,,,,
1557947980888,,,,,,,,,,33.43785353942499
1557947980889,0.0,32.851188788342654,53.90625,,-10.204087257385254,-1.9249382019042969,1.535880446434021,1000.719970703125,172.82889377671157,
1557947980895,,,0.0,,,,,,,
1557947980916,0.0,,,,,,,,,
1557947980939,,,,5.380240790782219,,,,,,
1557947980949,,33.062098376285796,,,,,,,,
1557947980967,,,,,-8.667010307312012,-2.518700122833252,1.9093759059906006,,182.04014517536984,31.996406745036413
1557947980989,,36.035445703224156,,,,,,,,
1557947980999,,,38.18359375,,,,,,,
1557947981015,,,,4.598334483613971,-7.647080421447754,-4.2951979637146,1.2773065567016602,,,31.011934374410316
1557947981016,,,,,,,,,169.42009662611994,
1557947981029,,27.91295084380936,38.18359375,,,,,,,
1557947981039,0.0,,,,,,,,,
1557947981065,,,,3.0792502268464137,,,,,,
1557947981069,,26.38101692565,38.18359375,,,,,,,
1557947981087,,,,,,,,,,31.014028741304177
1557947981088,,,,,-7.5417351722717285,-5.535394191741943,0.9516952037811279,1000.719970703125,150.44402794188363,
1557947981109,,28.824984491454067,,,,,,,,
1557947981137,,,,2.313076978307134,,,,,,
1557947981149,,27.4464049156907,,,,,,,,
1557947981154,,,,,-8.528146743774414,-6.301538944244385,2.608482837677002,,165.65699024252308,31.174829504285622
1557947981155,,,,,,,,,163.50899137120246,
1557947981157,0.0,,,,,,,,,
1557947981196,,,,3.049251627176715,,,,,,
1557947981209,,41.51783492752662,0.0,,,,,,,
1557947981221,,,,,-10.074800491333008,-7.4316020011901855,2.1583728790283203,,155.8233893095373,30.89287911371636
1557947981249,,40.53894061075691,,,,,,,,
1557947981250,,,,4.384290150306012,,,,,,
1557947981275,,,,,-10.673351287841797,-7.819462776184082,0.8559271097183228,1000.6900024414063,140.19810214908253,31.529986200024144
1557947981288,0.0,,,,,,,,,
1557947981289,,39.29834978462879,,,,,,,,
1557947981305,,,447.46378580729163,,,,,,,
1557947981327,,,,5.663666809993252,,,,,,
1557947981329,,37.563081799209115,447.46378580729163,,,,,,,
1557947981340,,,,,-10.8505220413208,-4.63517427444458,2.3738510608673096,,122.35132328183778,31.675543635158437
1557947981369,,35.62465729820819,447.46378580729163,,,,,,,
1557947981376,,,,6.910757121716935,,,,,,
1557947981395,,,,,-9.873687744140625,-1.3215993642807007,-0.02992752194404602,,81.26737342418505,32.09205490434827
1557947981410,0.0,,,,,,,,,
1557947981428,,35.561086209121655,,,,,,,,
1557947981448,,,,8.355883744515326,,,,,,
1557947981460,,,,,-10.663774490356445,-2.427720546722412,1.7417817115783691,1000.6699829101563,85.72391476326749,33.76714366344968
1557947981469,,35.554732702716855,,,,,,,,
1557947981479,,,267.4996337890625,,,,,,,
1557947981509,,34.14854318269039,267.4996337890625,,,,,,,
1557947981518,,,,6.510815938277545,,,,,,
1557947981541,,,,,-11.405977249145508,-4.927267074584961,3.5422213077545166,,104.24599443375138,34.404796758272354
1557947981542,0.0,,,,,,,,,
1557947981549,,39.48677314446844,267.4996337890625,,,,,,,
1557947981563,,,223.53992280505952,,,,,,,
1557947981583,,,,4.770353978936006,,,,,,
1557947981589,,45.88554635737437,223.53992280505952,,,,,,,
1557947981605,,,,,-11.262324333190918,-5.985504150390625,3.7193922996520996,,122.53639408758846,35.6883738948897
1557947981630,,41.7835320492107,223.53992280505952,,,,,,,
1557947981638,,,,4.362525157254759,,,,,,
1557947981660,,,,,,,,,,36.40522003956613
1557947981661,,,,,-10.649409294128418,-5.693411827087402,4.1647138595581055,1000.6900024414063,148.83111975052014,
1557947981675,0.0,,,,,,,,,
1557947981690,,36.241968748055335,,,,,,,,
1557947981698,,,,5.15602102060228,,,,,,
1557947981725,,,,,,,,,,37.40093731955101
1557947981726,,,,,-9.313444137573242,-6.282385349273682,4.183867454528809,,183.7099078613844,
1557947981729,,33.74198066805219,,,,,,,,
1557947981735,,,0.0,,,,,,,
1557947981769,,31.641053650853458,,,,,,,,
1557947981786,,,,6.320387944736672,-8.38449478149414,-5.5976433753967285,3.5278561115264893,,,37.808994419005806
1557947981787,,,,,,,,,196.53659331131826,
1557947981797,0.0,,,,,,,,,
1557947981809,,31.057482009057892,0.0,,,,,,,
1557947981840,,,,6.209271899799103,,,,,,
1557947981841,1.0,,,,,,2.8670566082000732,,,38.26133753130102
1557947981842,,,,,-7.024587631225586,-5.760449409484863,,1000.699951171875,205.63776573884684,
1557947981849,,35.44984975188587,,,,,,,,
1557947981889,,37.238110675595294,,,,,,,,
1557947981911,,,,7.0765198493829535,-5.961562156677246,-5.7125654220581055,2.4600422382354736,,203.95110516482555,38.56436155008595
1557947981930,1.0,,,,,,,,,
1557947981949,,40.06083414698557,,,,,,,,
1557947981957,,,1590.33203125,7.861528772672316,,,,,,
1557947981980,,,,,-5.540182590484619,-6.234501361846924,1.7274165153503418,,199.31384385049375,38.18140934798346
1557947981989,,38.79194294566391,1590.33203125,,,,,,,
1557947982025,,,,7.864608690503065,,,,,,
1557947982029,,38.591425521181975,1590.33203125,,,,,,,
1557947982039,,,995.05859375,,,,,,,
1557947982053,,,,,-8.135497093200684,-7.043741226196289,0.15682020783424377,1000.6599731445313,187.73381818824907,37.969066567690724
1557947982069,,37.72781227879948,995.05859375,,,,,,,
1557947982075,1.0,,,,,,,,,
1557947982107,,,,6.44475050816933,-9.557653427124023,-6.6846113204956055,2.369062662124634,,196.56816244566198,37.90131931222982
1557947982109,,35.56478959878923,995.05859375,,,,,,,
1557947982118,,,503.35042317708337,,,,,,,
1557947982149,,,,4.716841760267801,,,,,,
1557947982169,,34.78688819072855,503.35042317708337,,,,,,,
1557947982174,,,,,-11.396400451660156,-4.707000732421875,0.4058171808719635,,188.14824674632882,36.93277680550684
1557947982202,1.0,,,,,,,,,
1557947982221,,34.36739185826969,503.35042317708337,,,,,,,
1557947982230,,,,2.6480613598931724,-12.38759994506836,-4.955997467041016,1.2198457717895508,1000.6900024414063,183.0101549809167,35.39915224211224
1557947982242,,,0.0,,,,,,,
1557947982249,,30.89305556764039,,,,,,,,
1557947982289,,,,4.594506233924309,-10.56800651550293,-4.0078935623168945,2.5031378269195557,,192.67987235495718,33.82913039745411
1557947982293,,31.146853338417053,,,,,,,,
1557947982301,,,1637.1484375,,,,,,,
1557947982328,1.0,,,,,,,,,
1557947982329,,38.78451088834889,1637.1484375,,,,,,,
1557947982355,,,,4.28259657127939,-10.467450141906738,-2.896984100341797,1.071405291557312,,179.60322565969196,32.533983438444125
1557947982369,,37.82376723303972,1637.1484375,,,,,,,
1557947982376,,,0.0,,,,,,,
1557947982402,,,,5.2154814026700045,,,,,,
1557947982426,0.0,,,,-9.926360130310059,-3.098097085952759,0.9085995554924011,1000.6699829101563,166.32158130914365,32.229334868617066
1557947982429,,45.59712683359983,,,,,,,,
1557947982453,0.0,,,,,,,,,
1557947982469,,35.50944895478826,,,,,,,,
1557947982476,,,79.8583984375,,,,,,,
1557947982480,,,,4.887885060471439,-10.046070098876953,-3.399766445159912,0.46327802538871765,,162.0262392646627,31.523325373302473
1557947982509,,34.52652306433027,79.8583984375,,,,,,,
1557947982534,,,,4.768349790965833,,,,,,
1557947982549,,39.744826917895615,79.8583984375,,,,,,,
1557947982564,,,,,-11.276689529418945,-4.443638324737549,0.851138710975647,,158.2204578591316,31.0990361950552
1557947982589,0.0,36.92917249687764,79.8583984375,,,,,,,
1557947982599,,,58.7939453125,,,,,,,
1557947982600,,,58.7939453125,,,,,,,
1557947982617,,,,4.733042513729153,,,,,,30.492458866450267
1557947982618,,,,,-10.630255699157715,-6.311115741729736,-0.05386953800916672,1000.6499633789063,142.7256956137158,
1557947982629,,39.96370186000385,58.7939453125,,,,,,,
1557947982675,,,,3.677616257272419,,,,,,
1557947982676,,,,,-9.136273384094238,-6.646304130554199,0.9133879542350769,,156.81633489031708,30.15708864807472
1557947982689,,38.65546881163398,58.7939453125,,,,,,,
1557947982719,0.0,,,2.1718295524836897,,,,,,
1557947982729,,37.059167847281344,,,,,,,,
1557947982740,,,,,-8.719682693481445,-4.299986362457275,0.606930136680603,,143.74378995101955,29.806207689626003
1557947982769,,35.38526607282812,,,,,,,,
1557947982783,,,53.65797061011905,3.38270720214474,,,,,,
1557947982809,,36.80182013662696,53.65797061011905,,,,,,,
1557947982812,,,,,,,,,,29.4307665829136
1557947982813,,,,,-9.217676162719727,-3.270479440689087,1.9285295009613037,1000.6599731445313,153.50647986004225,
1557947982849,,35.1641919670294,53.65797061011905,,,,,,,
1557947982858,,,,4.6348495765152755,-12.06198787689209,-2.250549554824829,2.7473464012145996,,153.55634024098336,29.366648107610146
1557947982859,0.0,,,,,,,,148.89518692493488,
1557947982909,,35.98896868081529,,,,,,,,
1557947982918,,,,6.610537018768874,,,,,,
1557947982946,,,,,,-2.1499931812286377,3.4177229404449463,,,28.969639701163953
1557947982947,,,,,-12.703634262084961,,,,155.70373805565703,
1557947982949,,36.18786608435178,,,,,,,,
1557947982960,,,64.580078125,,,,,,,
1557947982968,,,,6.151974195250126,,,,,,
1557947982989,,33.31142482116457,64.580078125,,,,,,,
1557947982993,,,,,,,,,,28.872824269703436
1557947982994,,,,,,-5.7987565994262695,3.489548921585083,,,
1557947982996,0.0,,,,-11.362881660461426,,,1000.6499633789063,207.93893843249418,
1557947983029,,31.114464770050432,64.580078125,,,,,,,
1557947983038,,,,4.335900108932247,,,,,,
1557947983040,,,74.3994140625,,,,,,,
1557947983063,,,,,-9.93593692779541,-7.067683219909668,3.604470729827881,,197.030771158147,29.076622538668854
1557947983069,,32.13657186968531,74.3994140625,,,,,,,
1557947983109,,38.56981783961133,74.3994140625,,,,,,,
1557947983114,,,,5.7016258464126235,-8.978256225585938,-6.617573261260986,3.796006679534912,,212.59899891827547,30.129885655492245
1557947983116,0.0,,,,,,,,,
1557947983126,,,43.06640625,,,,,,,
1557947983169,,33.47331845205575,43.06640625,,,,,,,
1557947983172,,,,6.55075620988804,,,,,,
1557947983197,1.0,,,,,-6.430825710296631,4.298789024353027,,,31.36702120361332
1557947983198,,,,,-8.465897560119629,,,1000.6499633789063,221.05187711054316,
1557947983209,,36.36060579806917,43.06640625,,,,,,,
1557947983246,,,,8.258428718434333,-7.8529815673828125,-6.129156112670898,3.2597055435180664,,217.1661141898312,32.64858404129854
1557947983247,1.0,,,,,,,,,
1557947983251,,38.57708571308577,,,,,,,,
1557947983289,,42.35964350528448,,,,,,,,
1557947983290,,,,7.809072490326856,,,,,,
1557947983312,,,,,,-8.04930591583252,2.2158336639404297,,,34.3298715744928
1557947983313,,,,,-7.910442352294922,,,,,
1557947983329,,39.48001620790086,,,,,,,,
1557947983335,,,64.248046875,,,,,,,
1557947983336,,,64.248046875,,,,,,,
1557947983358,,,,8.69454472828949,,,,,,
1557947983369,,43.866476900296945,64.248046875,,,,,,,
1557947983385,,,,,-8.087613105773926,-8.576030731201172,1.6651673316955566,,213.34057987722042,35.396751880877886
1557947983386,1.0,,,,,,,1000.6499633789063,210.5102041266805,
1557947983429,,37.015932120407115,64.248046875,,,,,,,
1557947983431,,,,8.156114832901782,,,,,,
1557947983437,,,93.271484375,,,,,,,
1557947983438,,,93.271484375,,,,,,,
1557947983452,,,,,,,,,,35.9863863434485
1557947983453,,,,,-9.667786598205566,-3.758896589279175,-0.39384618401527405,,202.70165865995511,
1557947983469,,42.769991217043106,93.271484375,,,,,,,
1557947983480,,,,1.6492450056059698,,,,,,
1557947983499,,,,,-11.319786071777344,-4.975151062011719,0.645237386226654,,208.21459120701752,35.86544343311273
1557947983509,,38.381472865833956,93.271484375,,,,,,,
1557947983514,,,0.0,,,,,,,
1557947983526,1.0,,,,,,,,,
1557947983546,,,,2.6445956201199303,,,,,,
1557947983549,,36.20992256393293,,,,,,,,
1557947983573,,,,,,,,,,34.0107339060516
1557947983574,,,,,-10.773907661437988,-4.098873138427734,0.8702923059463501,1000.6199951171875,207.95630077336432,
1557947983589,,41.897368065666214,,,,,,,,
1557947983601,,,75.8154296875,,,,,,,
1557947983623,,,,2.584316702280893,,,,,,
1557947983647,,,,,-9.246406555175781,-3.5482068061828613,0.46806642413139343,,208.4343047322385,31.987653607159537
1557947983648,1.0,35.557051866077515,,,,,,,,
1557947983649,,,75.8154296875,,,,,,,
1557947983675,,,,2.475799442993614,,,,,,
1557947983689,,42.21569720796567,75.8154296875,,,,,,,
1557947983701,,,46.5771484375,,,,,,,
1557947983707,,,,,-8.437167167663574,-2.346317768096924,-0.3411737382411957,,199.7183003323853,30.10215901270634
1557947983729,,39.99783726316751,46.5771484375,,,,,,,
1557947983733,,,,4.0721497004633065,,,,,,
1557947983757,0.0,,,,,,1.0283095836639404,,,29.39710874224299
1557947983758,,,,,-7.8529815673828125,-2.341529369354248,,1000.6499633789063,189.6935770460442,
1557947983769,,29.513172771570847,46.5771484375,,,,,,,
1557947983777,,,66.8212890625,,,,,,,
1557947983784,0.0,,,,,,,,,
1557947983808,,,,4.099006364953785,,,,,,
1557947983809,,28.74483025681993,66.8212890625,,,,,,,
1557947983834,,,,,,,,,,28.842156669442748
1557947983835,,,,,-9.217676162719727,-3.2130186557769775,0.7170634269714355,,200.56905503502367,
1557947983849,,26.775694103239857,66.8212890625,,,,,,,
1557947983864,,,,4.103116335136986,,,,,,
1557947983890,,,,,-9.21288776397705,-7.177816867828369,-1.2461819648742676,,,28.601573389129943
1557947983891,,,,,,,,,175.15509228347784,
1557947983909,,29.1770786183746,,,,,,,,
1557947983915,0.0,,,,,,,,,
1557947983943,,,,3.010695623829028,,,,,,
1557947983946,,,,,-6.847416877746582,-10.702081680297852,-4.406527996063232,1000.6099853515625,145.97618263972487,28.52279790026926
1557947983949,,40.61675769645074,,,,,,,,
1557947983989,,39.694562469788565,,,,,,,,
1557947984000,,,,5.833629963916824,,,,,,
1557947984001,,,535.205078125,,,,,,,
1557947984023,,,,,,,,,,28.570264261996215
1557947984024,,,,,-11.128249168395996,-8.78193187713623,-0.8678981065750122,,176.41337705313427,
1557947984029,,38.723809522986095,535.205078125,,,,,,,
1557947984048,0.0,,,,,,,,,
1557947984068,,,,5.521876436933882,,,,,,
1557947984072,,37.68273647186781,535.205078125,,,,,,,
1557947984083,,,,,-11.621455192565918,-6.138733386993408,0.7793126702308655,,196.57950055968422,28.67786604785263
1557947984109,,45.96458716660833,,,,,,,,
1557947984131,,,,7.7422338151364425,,,,,,
1557947984156,,,,,-8.034940719604492,-2.5522189140319824,-0.3842693865299225,1000.5799560546875,214.44088237137447,29.37396810253165
1557947984169,,36.430878866343335,,,,,,,,
1557947984170,0.0,,,,,,,,,
1557947984176,,,58.5205078125,,,,,,,
1557947984182,,,,7.394916345047058,,,,,,
1557947984203,,,,,-9.399636268615723,-1.8052281141281128,0.30047231912612915,,281.24783007729377,29.69612828427541
1557947984209,,37.874295883874204,58.5205078125,,,,,,,
1557947984249,,40.10291452153084,58.5205078125,,,,,,,
1557947984255,,,0.0,,,,,,,
1557947984256,,,,8.465553046251983,,,,,,
1557947984269,,,,,-9.600749015808105,-3.9025487899780273,6.429628849029541,,,30.57875055779441
1557947984270,,,,,,,,,278.4984193891752,
1557947984283,0.0,,,,,,,,,
1557947984289,,34.11238426298856,,,,,,,,
1557947984322,,,,9.62665256333661,,,,,,
1557947984329,,40.01285507281943,,,,,,,,
1557947984336,1.0,,,,-11.69806957244873,-5.233725070953369,6.051344871520996,1000.5899658203125,282.9245458958835,31.248359736920857
1557947984347,,,0.0,,,,,,,
1557947984380,,,,9.0519048382742,,,,,,
1557947984389,,50.46532053086196,,,,,,,,
1557947984392,1.0,,,,-11.563994407653809,-6.473921298980713,3.8534677028656006,,274.9596369084891,32.19099306044836
1557947984429,,40.11755016526976,,,,,,,,
1557947984438,,,,5.512489702902798,,,,,,
1557947984447,,,85.2001953125,,,,,,,
1557947984455,,,,,-11.008539199829102,-8.068459510803223,3.599682331085205,,261.28969630362553,33.331517457201926
1557947984470,,32.11686772470093,85.2001953125,,,,,,,
1557947984509,,36.01804315684492,85.2001953125,,,,,,,
1557947984516,,,0.0,,,,,,,
1557947984524,,,,5.711203009282057,,-7.201758861541748,3.8391025066375732,,,34.51449002583951
1557947984525,1.0,,,,-10.644620895385742,,,1000.6099853515625,260.5908996496415,
1557947984549,,42.22201402805968,,,,,,,,
1557947984588,,,,5.739973531522434,,,,,,
1557947984589,,,,,-11.133037567138672,-7.082048416137695,4.428076267242432,,257.23912091824116,35.8728317667519
1557947984590,,43.816033967755914,,,,,,,,
1557947984618,,,96.89453125,,,,,,,
1557947984649,,38.4354768187723,96.89453125,,,,,,,
1557947984653,,,,6.9502973314532,-9.648633003234863,-6.469132900238037,5.510255336761475,,256.2084522026754,37.91899376962656
1557947984654,1.0,,,,,,,,,
1557947984689,,43.967671522656524,96.89453125,,,,,,,
1557947984721,,,,8.10919012840211,-8.446743965148926,-6.4164605140686035,4.940435409545898,,252.6010331510198,40.24723721327967
1557947984722,,,,,,,,1000.6300048828125,,
1557947984729,,43.89981080057531,96.89453125,,,,,,,
1557947984768,,,,9.206961228918082,,,,,,
1557947984769,,41.49792387211044,,,,,,,,
1557947984787,1.0,,,,-7.532158374786377,-7.082048416137695,4.63397741317749,,251.059664361023,41.91109671400877
1557947984809,,37.471181406361055,,,,,,,,
1557947984822,,,,10.001209185926673,,,,,,
1557947984823,,,98.134765625,,,,,,,
1557947984849,,36.27814653789137,98.134765625,,,,,,,
1557947984852,,,,,-6.430825710296631,-7.718906402587891,1.459265947341919,,234.9550276944276,44.27211435048248
1557947984895,,,,9.480980556333312,,,,,,
1557947984909,,32.9241807064861,98.134765625,,,,,,,
1557947984915,,,0.0,,,,,,,
1557947984923,1.0,,,,-4.376600742340088,-5.9088897705078125,-1.1791443824768066,1000.5899658203125,236.12712913713682,45.21703233515944
1557947984949,,32.69610829427542,,,,,,,,
1557947984970,,,,8.28083817519634,-6.957550048828125,-4.788403511047363,-3.377021551132202,,206.77894008499425,45.857824416296985
1557947984989,,32.65712583850988,,,,,,,,
1557947984998,,,98.5693359375,,,,,,,
1557947985015,,,,5.938901073386613,,,,,,
1557947985029,,33.85765883976173,98.5693359375,,,,,,,
1557947985035,,,,,-10.821791648864746,-7.110779285430908,-4.641160011291504,,211.08549730009236,45.292496327952165
1557947985063,1.0,,,,,,,,,
1557947985069,,30.126485414500745,98.5693359375,,,,,,,
1557947985076,,,65.595703125,,,,,,,
1557947985081,,,,6.454046520726297,,,,,,
1557947985110,,,,,-11.24795913696289,-5.765237808227539,-1.8255788087844849,1000.6199951171875,210.4012762697971,44.01647396765266
1557947985128,,30.08784193441031,,,,,,,,
1557947985129,,,65.595703125,,,,,,,
1557947985161,,,,3.5728212720112156,-11.405977249145508,-5.109226226806641,-2.7736825942993164,,223.75526598403422,42.03688833430879
1557947985169,,33.466412265040006,65.595703125,,,,,,,
1557947985178,,,41.4990234375,,,,,,,
1557947985204,1.0,,,4.327449374021237,,,,,,
1557947985209,,44.01237075127378,41.4990234375,,,,,,,
1557947985248,,,,,-11.018115997314453,-5.07570743560791,-1.5382746458053589,,232.98231879796617,41.37317971806507
1557947985249,,37.08620622936905,41.4990234375,,,,,,,
1557947985271,,,,3.6041400151379057,,,,,,
1557947985289,,37.47944233433114,,,,,,,,
1557947985296,,,,,,,,,,41.43066473924573
1557947985297,,,,,-10.831368446350098,-3.9025487899780273,-1.116895079612732,1000.6099853515625,249.05283183946824,
1557947985329,,36.15903824349728,,,,,,,,
1557947985343,1.0,,,4.136389527444666,,,,,,
1557947985362,,,,,,,-2.079364061355591,,,41.12553966179727
1557947985363,,,,,-9.44752025604248,-4.280832767486572,,,250.52589873776486,
1557947985389,,29.82773990271051,,,,,,,,
1557947985400,,,48.0478515625,,,,,,,
1557947985410,,,,3.5144762663181655,,,,,,
1557947985429,,31.555713430949762,48.0478515625,,,,,,,
1557947985438,,,,,-9.279925346374512,-4.01268196105957,-0.3172317147254944,,268.1953317432102,40.747761194712126
1557947985465,,,,3.281615609281513,,,,,,
1557947985469,,29.67874958425885,48.0478515625,,,,,,,
1557947985491,2.0,,,,-9.107542991638184,-5.137956619262695,-0.27892449498176575,1000.5499877929688,281.03242640143907,41.37849659876403
1557947985509,,28.82227981887266,,,,,,,,
1557947985545,,,,2.4242544974944003,-7.86734676361084,-6.48828649520874,-0.28371289372444153,,266.00848275589055,41.71726239264588
1557947985549,,38.98337706899107,0.0,,,,,,,
1557947985589,,41.62961917123446,,,,,,,,
1557947985597,,,,1.1638359002883472,,,,,,
1557947985621,,,,,-10.496180534362793,-8.762778282165527,3.2166099548339844,,280.9827094544705,41.79485736222476
1557947985622,2.0,,,,,,,,,
1557947985649,,39.008683663414764,,,,,,,,
1557947985664,,,187.3632085890997,,,,,,,
1557947985674,,,,6.2445881110181745,,,,,,
1557947985675,1.0,,,,-8.69095230102539,-4.1611223220825195,4.911705017089844,1000.5700073242188,283.35429456827154,41.850927474342186
1557947985689,,36.72071291237303,187.3632085890997,,,,,,,
1557947985721,,,,6.791574239589483,,,,,,
1557947985729,,36.213423248108406,187.3632085890997,,,,,,,
1557947985746,1.0,,,,-8.853757858276367,-4.180276393890381,4.006696701049805,,291.1444668261296,31.370209446877592
1557947985747,,,164.23784528459822,,,,,,,
1557947985769,,36.42473073318964,164.23784528459822,,,,,,,
1557947985799,,,,5.550280575920063,-10.323798179626465,-4.405331134796143,3.508702516555786,,300.3770725838568,30.993709428025667
1557947985809,,34.32103210965205,164.23784528459822,,,,,,,
1557947985818,,,210.33203125,,,,,,,
1557947985843,,,,5.015940243330078,,,,,,
1557947985868,,32.52759636504619,,,,,,,,
1557947985869,,,210.33203125,,,,,,,
1557947985888,0.0,,,,-11.109095573425293,-5.051765441894531,2.5462334156036377,1000.6199951171875,308.3312376836868,32.20838401116008
1557947985906,,,,4.135055308404526,,,,,,
1557947985909,,33.021975140089175,210.33203125,,,,,,,
1557947985932,,,,,-11.434707641601563,-6.253654956817627,3.0825347900390625,,317.7954449108854,33.45564288795155
1557947985949,,34.87095492084858,,,,,,,,
1557947985976,,,,5.6080825719373095,,,,,,
1557947985992,,37.501755637689975,,,,,,,,
1557947985997,,,,,-11.314997673034668,-7.5848307609558105,3.824737310409546,,331.43469747580804,35.31019696366812
1557947985998,,,0.0,,,,,,,
1557947986024,0.0,,,,,,,,,
1557947986029,,31.545266760278977,,,,,,,,
1557947986047,,,,7.762365013828592,,,,,,
1557947986069,,28.63442757926776,,,,,,,,
1557947986070,1.0,,,,-10.845733642578125,-7.398083209991455,3.618835926055908,1000.5999755859375,349.5488799566061,35.685431259608535
1557947986102,,,,8.31733918410904,,,,,,
1557947986118,,,,,-10.299856185913086,-8.202534675598145,3.6762967109680176,,348.1151694620807,35.30906408044583
1557947986129,,39.091728607971014,0.0,,,,,,,
1557947986135,1.0,,,,,,,,,
1557947986169,,51.90291820342479,,9.678651768135277,,,,,,
1557947986190,,,,,-8.868123054504395,-9.99339771270752,2.608482837677002,,328.495523641979,34.70288216881639
1557947986209,,48.143197501193725,,,,,,,,
1557947986222,,,106.728515625,,,,,,,
1557947986229,,,,11.532328402741221,,,,,,
1557947986245,,,,,,,,,,34.878360053190576
1557947986246,,,,,-4.443638324737549,-10.256759643554688,2.3355438709259033,1000.5599975585938,271.12155553837295,
1557947986249,,44.88995365975599,106.728515625,,,,,,,
1557947986259,1.0,,,,,,,,,
1557947986289,,42.1858156232103,106.728515625,,,,,,,
1557947986297,,,,12.474221465561488,,,,,,
1557947986318,,,,,-6.560112476348877,-6.0190229415893555,-0.23104046285152435,,294.28809554257384,34.857567590274385
1557947986329,,41.259078615925844,,,,,,,,
1557947986369,,,,6.535999961881042,,,,,,
1557947986389,,46.68565219333323,,,,,,,,
1557947986396,,,,,-8.508993148803711,-6.98628044128418,-0.9062053561210632,,222.74121511871908,35.762830908856756
1557947986397,1.0,,,,,,,,,
1557947986401,,,43.6376953125,,,,,,,
1557947986429,,34.20984619301245,43.6376953125,,,,,,,
1557947986432,,,,5.367920049569418,,,,,,
1557947986460,2.0,,,,-10.314221382141113,-6.378153324127197,0.1711854189634323,,247.41444704250057,36.13654631257164
1557947986461,,,,,,,,1000.5299682617188,,
1557947986469,,33.55148690371651,43.6376953125,,,,,,,
1557947986482,,,43.8232421875,,,,,,,
1557947986503,,,,3.1728515625,-10.917559623718262,-5.099649429321289,0.29568392038345337,,298.67655355600954,36.017356741556696
1557947986509,,39.573897661376066,43.8232421875,,,,,,,
1557947986530,2.0,,,,,,,,,
1557947986549,,36.18134641757622,43.8232421875,,,,,,,
1557947986550,,,,2.452066958709553,,,,,,
1557947986559,,,43.0419921875,,,,,,,
1557947986582,,,,,-10.764330863952637,-2.691082715988159,0.03711012750864029,,,35.23024404299928
1557947986609,,32.775514382180745,43.0419921875,,,,,,,
1557947986625,,,,5.983192107819392,,,,,,
1557947986646,0.0,,,,-11.238382339477539,-2.63362193107605,0.9900023937225342,1000.5399780273438,336.54362091836964,35.07677338264162
1557947986649,,37.75193616864557,43.0419921875,,,,,,,
1557947986674,,,,7.074630177675643,,,,,,
1557947986675,0.0,,,,,,,,,
1557947986692,,35.68978284444217,,,,,,,,
1557947986702,,,,,-11.678915977478027,-3.9025487899780273,0.970848798751831,,340.2417414671084,34.922056121015125
1557947986703,,,,,,,,,342.4677872025275,
1557947986729,,32.68556034309562,,,,,,,,
1557947986756,,,,6.694927618477319,,,,,,
1557947986757,,,,,-10.745177268981934,-4.367023944854736,1.5550340414047241,,340.1136634673396,34.90816689824433
1557947986769,,41.354160235527814,,,,,,,,
1557947986788,,,99.8828125,,,,,,,
1557947986806,,,,5.780185580854744,,,,,,
1557947986809,0.0,40.52155909713096,99.8828125,,,,,,,
1557947986833,,,,,,,,,,34.90186394083412
1557947986834,,,,,-11.985373497009277,-6.1770405769348145,2.167949676513672,1000.5099487304688,339.7398847801053,
1557947986869,,38.368239300586644,99.8828125,,,,,,,
1557947986878,,,135.9033203125,,,,,,,
1557947986884,,,,6.0021361680923455,-9.931148529052734,-2.935291290283203,1.7896658182144165,,340.4724259836837,34.56588061391405
1557947986909,,36.57477496882105,135.9033203125,,,,,,,
1557947986943,0.0,,,5.501923311509569,,,,,,
1557947986949,,35.90812181212354,135.9033203125,,,,,,,
1557947986959,,,101.3330078125,,,,,,,
1557947986970,,,,,-9.773131370544434,-2.6815059185028076,0.07541735470294952,,341.47864945221,34.56588061391405
1557947986989,,37.46276274165676,101.3330078125,,,,,,,
1557947986992,,,,4.995888927278713,,,,,,
1557947987024,1.0,,,,-11.535264015197754,-3.840299606323242,1.2198457717895508,1000.5399780273438,345.3276625400927,35.43218802762953
1557947987029,,40.2691577632761,101.3330078125,,,,,,,
1557947987037,,,64.072265625,,,,,,,
1557947987056,,,,4.266323828830997,,,,,,
1557947987057,1.0,,,,,,,,,
1557947987074,,,,,-11.884817123413086,-4.568136692047119,2.8814218044281006,,342.5289139805045,36.534093038521426
1557947987088,,32.772973232076595,,,,,,,,
1557947987089,,,64.072265625,,,,,,,
1557947987120,,,,3.969768723830536,,,,,,
1557947987129,,34.97910255466913,64.072265625,,,,,,,
1557947987138,,,64.27734375,,,,,,,
1557947987141,,,,,-10.879252433776855,-6.133944988250732,2.93888258934021,,346.39005150793764,37.89775644873529
1557947987168,1.0,,,,,,,,,
1557947987169,,39.532225049563145,64.27734375,,,,,,,
1557947987187,,,,5.370531398117783,,,,,,
1557947987204,0.0,,,,,-6.7708024978637695,3.092111587524414,,,38.95869535938221
1557947987209,,37.93063807529246,64.27734375,,-9.102754592895508,,,1000.5599975585938,351.3878588717605,
1557947987249,,36.15535692569816,,,,,,,,
1557947987259,,,,6.939621884381984,,,,,,
1557947987275,,,,,-7.393294811248779,-6.268020153045654,3.2836475372314453,,353.06327524686066,39.19642956418338
1557947987285,0.0,,,,,,,,,
1557947987289,,34.20186698434329,,,,,,,,
1557947987298,,,46.7236328125,,,,,,,
1557947987322,,,,7.727329196825594,,,,,,
1557947987339,,,,,-6.9240312576293945,-6.138733386993408,2.7329812049865723,,347.6925190637876,39.25175178955667
1557947987348,,31.8592281603286,,,,,,,,
1557947987349,,,46.7236328125,,,,,,,
1557947987377,,,,7.809035364575788,,,,,,
1557947987389,,40.93427485931847,46.7236328125,,,,,,,
1557947987395,,,,,,,,,,39.02447952531925
1557947987396,2.0,,,,-7.771578788757324,-7.240066051483154,2.4648306369781494,1000.5199584960938,322.252297023575,
1557947987409,2.0,,,,,,,,,
1557947987432,,41.300580246167094,,,,,,,,
1557947987444,,,,8.371316583740866,,,,,,
1557947987459,,,,,,-8.29830265045166,1.7896658182144165,,,38.79819562141508
1557947987460,,,,,-9.892841339111328,,,,243.86153973061084,
1557947987469,,37.40836371383501,,,,,,,,
1557947987509,,37.70451500133315,,,,,,,,
1557947987515,,,,7.580238661015825,,,,,,
1557947987520,,,331.7333984375,,,,,,,
1557947987530,,,,,,,0.851138710975647,,,38.75216182978812
1557947987531,,,,,-9.188945770263672,-7.015010833740234,,,220.78272667610963,
1557947987532,2.0,,,,,,,,,
1557947987549,,47.33001606228122,331.7333984375,,,,,,,
1557947987573,,,,4.847165779919484,,,,,,
1557947987597,,,,,,,-0.06823474913835526,,,39.00371946375886
1557947987598,,,,,-10.122684478759766,-4.960785865783691,,1000.5099487304688,223.70477722568944,
1557947987609,,38.06550598949131,331.7333984375,,,,,,,
1557947987634,,,,1.8624169606380352,,,,,,
1557947987650,2.0,37.06317957479596,,,-10.970232009887695,-5.0900726318359375,0.7553706169128418,,346.8101098494407,38.75693462833227
1557947987689,,31.568972953332693,,,,,,,,
1557947987697,,,0.0,2.387507581449125,,,,,,
1557947987729,,39.04431624191745,,,,,,,,
1557947987735,,,,,-10.673351287841797,-4.170699596405029,2.234987258911133,,334.7620890167769,38.53842238302329
1557947987736,,,,,,,,,340.3814837224323,
1557947987769,,39.18885484108978,,,,,,,,
1557947987776,,,85.4052734375,,,,,,,
1557947987782,0.0,,,3.496079156088604,-10.074800491333008,-1.3024457693099976,1.9572598934173584,,347.3172667632398,37.801323866872465
1557947987783,0.0,,,,,,,1000.5499877929688,,
1557947987827,,,,6.140990268239266,,,,,,
1557947987828,,33.1303543205738,,,,,,,,
1557947987829,,,85.4052734375,,,,,,,
1557947987844,,,,,-7.738059997558594,-3.8498764038085938,1.0809820890426636,,,37.27854690101956
1557947987845,,,,,,,,,340.7236625394716,
1557947987869,,31.228499562767652,85.4052734375,,,,,,,
1557947987892,,,,3.0960140998676975,,,,,,
1557947987909,,32.55609530576035,,,,,,,,
1557947987919,0.0,,,,-8.360552787780762,-4.367023944854736,-0.5422866940498352,,346.33000304607583,36.8756012100089
1557947987949,,28.379289123911885,0.0,,,,,,,
1557947987962,,,,2.9075107916043748,,,,,,
1557947987977,1.0,,,,-9.62947940826416,-4.553771495819092,0.13287819921970367,1000.489990234375,341.467774083504,37.173780689368584
1557947987989,,28.16104870867646,,,,,,,,
1557947988021,,,,3.9274109451619315,,,,,,
1557947988029,,29.56882709183049,0.0,,,,,,,
1557947988049,1.0,,,,-11.27190113067627,-2.542642116546631,-1.07379949092865,,346.56335133642744,36.9417102713356
1557947988089,,39.530252833378064,,,,,,,,
1557947988093,,,,6.830242605522367,,,,,,
1557947988110,,,,,-12.306197166442871,-5.066130638122559,1.4257471561431885,,337.7639742324704,36.80271819172382
1557947988129,,38.741631251622664,,,,,,,,
1557947988153,,,,6.169398175384334,,,,,,
1557947988169,,35.66057428758511,,,,,,,,
1557947988176,,,136.4501953125,,,,,,,
1557947988181,1.0,,,,-10.869675636291504,-4.098873138427734,1.3251906633377075,1000.449951171875,339.066346165672,36.82906632927448
1557947988209,,34.11560522995289,136.4501953125,,,,,,,
1557947988224,,,,4.872857625646304,,,,,,
1557947988241,,,,,-9.255983352661133,-2.341529369354248,-0.25977087020874023,,,36.82906632927448
1557947988242,,,,,,,,,343.2107512747794,
1557947988249,,36.41465331155715,136.4501953125,,,,,,,
1557947988289,,35.294025469939825,,,,,,,,
1557947988290,,,,4.424032918135012,-10.788272857666016,-3.687070608139038,0.36750996112823486,,341.18540381793196,37.361745271433435
1557947988322,1.0,,,,,,,,,
1557947988337,,,,3.352979951620534,,,,,,
1557947988349,,33.736218283593125,,,,,,,,
1557947988358,,,73.935546875,,,,,,,
1557947988364,0.0,,,,,,,,,38.23035383185974
1557947988365,,,,,-11.947066307067871,-4.290409564971924,1.6412252187728882,1000.469970703125,350.44453973794276,
1557947988389,,33.55674066158404,73.935546875,,,,,,,
1557947988414,,,,3.729175603134842,,,,,,
1557947988429,,34.440305567880806,73.935546875,,,,,,,
1557947988434,,,,,-10.505757331848145,-4.912901878356934,2.1535844802856445,,345.7916065545604,38.53881082609982
1557947988435,,,0.0,,,,,,,
1557947988461,0.0,,,,,,,,,
1557947988469,,41.11640350580656,,,,,,,,
1557947988479,,,,3.874553285506788,,,,,,
1557947988481,,,,,-9.136273384094238,-5.683835029602051,2.297236442565918,,348.510404334819,38.51778911683861
1557947988509,,36.63936379167117,,,,,,,,
1557947988524,,,112.041015625,,,,,,,
1557947988530,,,,5.427845770155029,,,,,,
1557947988562,1.0,,,,,,2.3116016387939453,,,38.239377926730555
1557947988563,,,,,-7.95832633972168,-6.224924564361572,,1000.4599609375,345.81185891922314,
1557947988569,,32.62804329437867,112.041015625,,,,,,,
1557947988582,1.0,,,,,,,,,
1557947988608,,,,6.802892787686847,,,,,,
1557947988609,,33.822786367116954,112.041015625,,,,,,,
1557947988627,,,,,,,,,,37.920179592564395
1557947988628,,,,,-7.718906402587891,-6.617573261260986,1.8471266031265259,,340.27643882809207,
1557947988649,,47.03185989796526,,,,,,,,
1557947988655,,,,7.467160362997352,,,,,,
1557947988678,,,,,,,,,,37.74692132259939
1557947988679,,,,,-8.65743350982666,-6.651092529296875,0.6643909811973572,,350.5945076402278,
1557947988689,,45.14279417677499,,,,,,,,
1557947988699,,,1243.1591796875,,,,,,,
1557947988707,1.0,,,,,,,,,
1557947988729,,40.99050704167601,1243.1591796875,,,,,,,
1557947988730,,,,6.747129324377371,,,,,,
1557947988759,2.0,,,,-10.44350814819336,-7.843404769897461,0.6117185354232788,1000.4299926757813,192.28928115708084,37.55955291307269
1557947988769,,38.4672025023124,1243.1591796875,,,,,,,
1557947988789,,,,7.04379496115794,,,,,,
1557947988814,,,,,,,0.36750996112823486,,,37.62246727007082
1557947988815,,,,,-8.96389102935791,-4.821922302246094,,,7.816788651279921,
1557947988829,,36.17446164466652,,,,,,,,
1557947988832,2.0,,,,,,,,,
1557947988860,,,,3.0963345915504723,,,,,,
1557947988869,,40.904895884648695,,,,,,,,
1557947988880,,,,,,-4.855441093444824,-0.4321534037590027,,,37.7731390443548
1557947988881,,,,,-9.624691009521484,,,,60.008785292924756,
1557947988909,,39.23636875021439,,,,,,,,
1557947988917,,,57.880859375,,,,,,,
1557947988918,,,57.880859375,,,,,,,
1557947988933,,,,2.0196276997716223,,,,,,
1557947988934,,,,,-9.672574996948242,-4.692635536193848,0.44412440061569214,1000.469970703125,33.50282578462668,37.53718270934029
1557947988949,,38.52819344198632,57.880859375,,,,,,,
1557947988959,2.0,,,,,,,,,
1557947988983,,,,1.1986212220299004,,,,,,
1557947988989,,35.02622471570927,57.880859375,,,,,,,
1557947989010,,,,,,-3.974374771118164,0.017956512048840523,,,37.57193075856648
1557947989011,,,,,-9.23682975769043,,,,19.286176348027823,
1557947989029,,40.22717967519962,,,,,,,,
1557947989055,,,,1.9862311385491336,-9.251194953918457,-2.279279947280884,-0.16879121959209442,,11.55654603319914,37.74784812099232
1557947989089,,37.61492214124398,,,,,,,,
1557947989099,,,123.191650390625,,,,,,,
1557947989104,2.0,,,4.290207673494824,,,,,,
1557947989122,0.0,,,,,-2.073378562927246,-0.27892449498176575,,,37.23117048553794
1557947989123,,,,,-9.801861763000488,,,1000.4599609375,359.50432612829957,
1557947989129,,35.517156958555034,123.191650390625,,,,,,,
1557947989168,,,,5.2086207602981975,,,,,,
1557947989169,,30.90364063175929,123.191650390625,,,,,,,
1557947989181,,,85.50238327752976,,,,,,,
1557947989196,,,,,-10.620678901672363,-2.7724854946136475,-0.5566518902778625,,1.2052407735101838,37.18090890230022
1557947989209,,27.83284450082387,85.50238327752976,,,,,,,
1557947989242,0.0,,,5.290910721897492,,,,,,
1557947989249,,27.8253831280796,85.50238327752976,,,,,,,
1557947989262,,,,,,-2.940079689025879,-0.9301473498344421,,,37.01216161973251
1557947989263,,,,,-10.596736907958984,,,,358.21679630288617,
1557947989308,,,,5.217761283002173,,,,,,
1557947989309,,29.78130327755663,,,,,,,,
1557947989337,1.0,,,,,,-0.8439561128616333,,,36.436384569896106
1557947989338,,,,,-11.051634788513184,-2.873042106628418,,1000.469970703125,351.0159764157945,
1557947989349,,45.61702590209174,,,,,,,,
1557947989365,,,,5.355592866735076,,,,,,
1557947989378,,,213.91398111979169,,,,,,,
1557947989389,,41.28747425736252,213.91398111979169,,,,,,,
1557947989398,1.0,,,,-13.096282958984375,-5.324704647064209,1.7369933128356934,,344.25597512346644,36.286362531431614
1557947989429,,38.255670188156145,213.91398111979169,,,,,,,
1557947989442,,,136.2552490234375,,,,,,,
1557947989443,,,,6.282609934696944,-10.371682167053223,-3.1220390796661377,1.1001356840133667,,344.4260143904012,36.13986722409843
1557947989469,,38.000844527036115,136.2552490234375,,,,,,,
1557947989492,,,,4.245471785964995,,,,,,
1557947989509,,38.4260728964892,136.2552490234375,,,,,,,
1557947989512,,,,,-8.834604263305664,-3.2800562381744385,-0.09696517139673233,1000.4599609375,343.12115114569986,36.03526054831197
1557947989541,1.0,,,,,,,,,
1557947989559,,,,2.5585167793169514,,,,,,
1557947989569,,37.031545197539394,136.2552490234375,,,,,,,
1557947989586,,,,,-10.24239444732666,-3.552995204925537,0.8846575021743774,,343.0118151850136,37.10054123887265
1557947989609,,34.42504837610996,,,,,,,,
1557947989631,,,,2.671798348024436,,,,,,
1557947989649,,33.39149052522589,,,,,,,,
1557947989655,,,,,-10.228029251098633,-2.829946517944336,1.578976035118103,,347.62351024750836,37.84111533770721
1557947989659,,,100.263671875,,,,,,,
1557947989679,1.0,,,2.822826839204938,,,,,,
1557947989689,,32.96240467103123,100.263671875,,,,,,,
1557947989699,0.0,,,,-9.375694274902344,-4.213795185089111,1.8040310144424438,1000.4400024414063,354.2079893385454,38.88547279152889
1557947989729,,36.35037725130615,100.263671875,,,,,,,
1557947989737,,,102.197265625,,,,,,,
1557947989745,,,,3.296296416944231,,,,,,
1557947989769,,38.60645024093814,102.197265625,,,,,,,
1557947989774,,,,,-9.481039047241211,-5.142745018005371,2.40736985206604,,0.43143698309307865,39.413322786162865
1557947989822,0.0,,,4.946867543140799,,,,,,
1557947989829,,38.79060768546459,102.197265625,,,,,,,
1557947989836,,,99.3994140625,,,,,,,
1557947989845,,,,,,,2.230198860168457,,,38.83220375863096
1557947989869,,39.05398494501679,99.3994140625,,,,,,,
1557947989873,,,,6.069192869014695,,,,,,
1557947989894,4.0,,,,-7.3023152351379395,-4.697423934936523,0.7649474143981934,1000.4400024414063,12.049318568606168,38.801030675235566
1557947989909,,37.55960285502292,99.3994140625,,,,,,,
1557947989917,,,95.5908203125,,,,,,,
1557947989943,,,,5.517047817435793,,,,,,
1557947989947,4.0,,,,,,,,,
1557947989949,,35.13972961561153,95.5908203125,,,,,,,
1557947989971,,,,,,,,,,38.97948205610619
1557947989972,,,,,-7.398083209991455,-6.033388137817383,0.7362170219421387,,16.43361614306366,
1557947989989,,48.34082591003317,95.5908203125,,,,,,,
1557947989999,,,102.2705078125,,,,,,,
1557947990019,,,,6.426194717415788,-9.81143856048584,-7.445967197418213,0.02753331884741783,,58.840898076933456,39.25990323500288
1557947990048,,41.64275229863595,,,,,,,,
1557947990049,,,102.2705078125,,,,,,,
1557947990063,,,,6.57476329304859,,,,,,
1557947990080,4.0,,,,-11.798625946044922,-7.680599212646484,0.11851298063993454,1000.4299926757813,100.56706330148575,39.46365481001926
1557947990089,,41.21756450878855,102.2705078125,,,,,,,
1557947990097,,,101.6162109375,,,,,,,
1557947990129,,37.39204714653447,101.6162109375,,,,,,,
1557947990131,,,,6.110618367222256,,,,,,
1557947990159,,,,,-10.079588890075684,-5.817910194396973,0.6165069341659546,,54.245358973146665,39.755502922092454
1557947990169,,35.51465183273458,101.6162109375,,,,,,,
1557947990178,,,100.6982421875,,,,,,,
1557947990209,,40.62891535875136,100.6982421875,,,,,,,
1557947990210,,,,2.8357454765611307,-10.8505220413208,-4.606443881988525,1.9716250896453857,,13.737150520070088,40.21169064946165
1557947990214,3.0,,,,,,,,,
1557947990249,,36.62136186556113,100.6982421875,,,,,,,
1557947990261,,,,2.954044582353362,,,,,,
1557947990278,5.0,,,,,,1.7753005027770996,,,39.696977820297434
1557947990279,,,,,-10.390835762023926,-4.343081951141357,,1000.47998046875,12.409138056724316,
1557947990309,,39.81872782103662,100.6982421875,,,,,,,
1557947990324,,,,3.251466860228482,,,,,,
1557947990349,,33.24372709532992,,,,,,,,
1557947990351,,,,,-9.41400146484375,-3.825934410095215,2.49834942817688,,5.322389479126116,38.86013631887089
1557947990352,5.0,,,,,,,,,
1557947990389,,32.496893371571204,,,,,,,,
1557947990395,,,,3.9892469352284388,,,,,,
1557947990404,,,62.177734375,,,,,,,
1557947990413,,,,,-8.504204750061035,-2.518700122833252,1.1240776777267456,,5.247046089278513,38.898844525746966
1557947990414,,,,,,,,,0.04231429923362384,
1557947990429,,31.757934843179978,62.177734375,,,,,,,
1557947990463,1.0,,,4.690377941398145,-7.8098859786987305,-3.141192674636841,1.171961784362793,1000.4400024414063,355.9102586023675,38.55152332704514
1557947990469,,30.784407688597337,62.177734375,,,,,,,
1557947990491,1.0,,,,,,,,,
1557947990509,,31.692593407848854,,4.311196613993247,,,,,,
1557947990537,,,,,-8.24084186553955,-4.20421838760376,1.0235211849212646,,355.38928421587747,38.300130663709886
1557947990569,,30.941713121949824,0.0,,,,,,,
1557947990582,,,,4.030990237361184,,,,,,
1557947990606,,,,,-7.920019149780273,-5.501875400543213,0.0035913025494664907,,359.2512797858251,38.33705709156157
1557947990609,,32.037348562557575,,,,,,,,
1557947990632,1.0,,,,,,,,,
1557947990649,,33.015210136169394,0.0,,,,,,,
1557947990651,,,,3.0001319220465317,,,,,,
1557947990680,2.0,,,,,,,,,38.03117073483385
1557947990681,,,,,-7.838616371154785,-6.6127848625183105,-1.9261353015899658,1000.4299926757813,356.1110170719812,
1557947990689,,30.652481726018564,,,,,,,,
1557947990701,,,,3.404500949715504,,,,,,
1557947990725,,,,,,-6.469132900238037,-1.5957354307174683,,,37.93191193263757
1557947990726,,,,,-9.959878921508789,,,,358.6657832702886,
1557947990729,,44.5324086930022,,,,,,,,
1557947990741,,,152.98636300223214,,,,,,,
1557947990777,2.0,,,4.988021999185195,,,,,,
1557947990789,,41.78895254738273,152.98636300223214,,,,,,,
1557947990797,,,,,,,1.7322049140930176,,,37.788092592736895
1557947990798,,,,,-12.51209831237793,-7.752425193786621,,,353.67310399115024,
1557947990829,,38.555703541218186,152.98636300223214,,,,,,,
1557947990839,,,179.94524274553572,,,,,,,
1557947990843,,,,6.906551578893338,,,,,,
1557947990869,,37.696526351066964,179.94524274553572,,,,,,,
1557947990870,5.0,,,,,,,,,38.26891843505458
1557947990871,,,,,-8.26478385925293,-4.520252704620361,2.2014684677124023,1000.4400024414063,353.1998675043167,
1557947990909,,41.70369954573666,179.94524274553572,,,,,,,
1557947990917,,,,3.952004254960461,-7.829039573669434,-3.6152446269989014,-0.04908113554120064,,,38.56669472655186
1557947990918,5.0,,,,,,,,354.6146809998428,
1557947990949,,35.94549534741528,179.94524274553572,,,,,,,
1557947990964,,,,4.135837075542228,,,,,,
1557947990982,,,,,-9.533711433410645,-2.868253707885742,0.9564836025238037,,356.80960220354433,39.022300560809576
1557947990989,,35.75471158041685,,,,,,,,
1557947991029,,,,4.480364451570484,,,,,,
1557947991049,,32.912165237043695,,,,,,,,
1557947991056,1.0,,,,-9.81143856048584,-3.1651346683502197,1.037886381149292,1000.4400024414063,356.36636284032846,39.97736937477395
1557947991057,1.0,,,,,,,,,
1557947991059,,,38.06640625,,,,,,,
1557947991089,,33.552382437672804,38.06640625,,,,,,,
1557947991107,,,,3.364065187473526,-9.892841339111328,-4.309563159942627,1.0091559886932373,,2.4026528695710567,41.200244224389316
1557947991129,,32.676404938034324,38.06640625,,,,,,,
1557947991169,,34.60272656360913,,,,,,,,
1557947991170,,,,1.2927030077057884,-10.251971244812012,-5.2911858558654785,2.6180596351623535,,7.895461331461092,42.42876523539221
1557947991197,1.0,,,,,,,,,
1557947991209,,38.1314554467409,,,,,,,,
1557947991217,,,,3.662594759499671,,,,,,
1557947991221,,,98.701171875,,,,,,,
1557947991245,,,,,-10.11789608001709,-5.568912982940674,3.5853171348571777,1000.4099731445313,16.7013134547513,42.65278640311955
1557947991249,,39.41265447046416,98.701171875,,,,,,,
1557947991293,,,,5.249475362086048,,,,,,
1557947991309,,35.19585330102052,98.701171875,,,,,,,
1557947991310,,,,,-8.944737434387207,-5.353435039520264,4.428076267242432,,11.090768966712915,41.511686194993935
1557947991338,1.0,,,,,,,,,
1557947991349,,34.02624844451135,,,,,,,,
1557947991355,,,,6.183833104969537,,,,,,
1557947991383,,,,,-9.05487060546875,-6.493074893951416,3.9923312664031982,,5.957282029461851,40.91136697376848
1557947991384,,,,,,,,,354.42090682554226,
1557947991389,,49.230471465382465,,,,,,,,
1557947991401,,,86.24255952380952,,,,,,,
1557947991427,,,,6.949168247427507,,,,,,
1557947991428,5.0,,,,-10.20887565612793,-7.723694801330566,2.9293057918548584,1000.3699951171875,342.978104786365,40.23754521462495
1557947991429,,45.11593504943227,86.24255952380952,,,,,,,
1557947991469,,41.06549773793711,86.24255952380952,,,,,,,
1557947991475,5.0,,,7.568469001222172,,,,,,
1557947991485,,,61.16566975911458,,,,,,,
1557947991493,,,,,-9.619902610778809,-6.938396453857422,1.1097124814987183,,17.162419525618873,39.909147420086015
1557947991528,,38.157882938570644,,,,,,,,
1557947991529,,,61.16566975911458,,,,,,,
1557947991539,,,,5.708051168702962,,,,,,
1557947991566,,,,,,,-0.38905778527259827,,,39.71775504846203
1557947991567,,,,,-6.818686485290527,-4.218583583831787,,,36.48186060245189,
1557947991569,,39.001741513753046,61.16566975911458,,,,,,,
1557947991609,,40.17405792378053,,,,,,,,
1557947991612,5.0,,,3.5034674770565473,,,,,,
1557947991631,,,,,-9.074024200439453,-4.280832767486572,-1.0690110921859741,1000.47998046875,53.15484072497867,39.62347950806969
1557947991649,,34.91891761114401,,,,,,,,
1557947991677,,,,2.227890100710151,,,,,,
1557947991689,,36.09214324202903,,,,,,,,
1557947991696,,,53.1298828125,,,,,,,
1557947991705,,,,,-9.045293807983398,-4.050989151000977,-0.7577648162841797,,40.96210952814346,39.87091694271382
1557947991729,,35.04211740555841,53.1298828125,,,,,,,
1557947991750,,,,1.8186031059380412,,,,,,
1557947991751,5.0,,,,-9.074024200439453,-4.141968727111816,0.21428105235099792,,36.801366606541364,40.21666333693486
1557947991789,,35.20113479705725,53.1298828125,,,,,,,
1557947991794,,,,1.3892070098645175,,,,,,
1557947991802,,,78.7911376953125,,,,,,,
1557947991812,,,,,-8.595184326171875,-3.28963303565979,-0.8104372620582581,1000.4400024414063,33.68947094898101,40.331006630920385
1557947991829,,36.15021111517086,78.7911376953125,,,,,,,
1557947991856,,,,2.880412107758621,,,,,,
1557947991869,,32.67758094548761,78.7911376953125,,,,,,,
1557947991877,,,72.783203125,,,,,,,
1557947991878,,,72.783203125,,,,,,,
1557947991884,,,,,,,,,,40.40445729302254
1557947991885,5.0,,,,-8.537723541259766,-3.9600095748901367,-0.18315643072128296,,35.40244824187437,
1557947991909,,32.53281326642194,72.783203125,,,,,,,
1557947991932,,,,2.2706330820617566,,,,,,
1557947991949,,30.228815987460344,72.783203125,,,,,,,
1557947991953,,,,,-8.916007041931152,-4.304774761199951,-0.6428431272506714,,32.624494193214275,40.95082561792467
1557947991959,,,100.087890625,,,,,,,
1557947991989,,28.907518885660007,100.087890625,,,,,,,
1557947991996,,,,2.7861405140863584,,,,,,
1557947992023,0.0,,,,-9.011775016784668,-4.371812343597412,-0.08738835901021957,1000.4099731445313,29.319754974627813,41.37934394460172
1557947992047,,,,2.8354377411323797,,,,,,
1557947992049,,29.652781545921517,100.087890625,,,,,,,
1557947992073,,,,,-8.604761123657227,-3.8594532012939453,0.4010287821292877,,27.69015380093282,41.73559826325324
1557947992089,,46.37279875099182,,,,,,,,
1557947992121,,,,3.5575398497718678,,,,,,
1557947992129,,41.38722033994753,,,,,,,,
1557947992137,,,2963.9404296875,,,,,,,
1557947992139,,,,,,,-0.10175357013940811,,,41.97368270233813
1557947992140,,,,,-8.829815864562988,-3.44765043258667,,,28.738338536625065,
1557947992141,0.0,,,,,,,,,
1557947992169,,39.38902524434263,2963.9404296875,,,,,,,
1557947992185,,,,4.29281724240725,,,,,,
1557947992209,,38.6452381206818,2963.9404296875,,,,,,,
1557947992212,,,,,,,,,,41.67613272040058
1557947992213,2.0,,,,-10.433931350708008,-5.190629482269287,0.6500257849693298,1000.4400024414063,27.774658608891514,
1557947992258,,,,4.13603652933543,-9.945513725280762,-3.5865142345428467,1.765723705291748,,26.30174880494576,42.15839234877257
1557947992269,,38.32090017073026,,,,,,,,
1557947992276,2.0,,,,,,,,,
1557947992305,,,,4.795281857031858,,,,,,
1557947992309,,38.24053696463142,,,,,,,,
1557947992323,,,,,-9.069235801696777,-2.604891538619995,2.4025814533233643,,26.8603387507423,42.21326806858204
1557947992349,,36.514819455687075,,,,,,,,
1557947992356,,,1173.5595703125,,,,,,,
1557947992374,,,,4.70632957198719,,,,,,
1557947992389,,34.16087320623791,1173.5595703125,,,,,,,
1557947992401,2.0,,,,-10.826580047607422,-5.066130638122559,3.7385458946228027,1000.4199829101563,30.733132849767685,41.719661815494284
1557947992429,,32.42782308377606,1173.5595703125,,,,,,,
1557947992447,,,,4.82880680739098,,,,,,
1557947992468,,,,,-9.8784761428833,-4.745307922363281,6.271611213684082,,28.767742501001976,41.64552861811937
1557947992469,,31.193590054742337,,,,,,,,
1557947992495,,,,6.79360048187441,,,,,,
1557947992512,,,,,-12.229581832885742,-1.7860745191574097,7.052121162414551,,27.686639668604812,41.59146507630627
1557947992529,,31.307254956312548,0.0,,,,,,,
1557947992539,2.0,,,,,,,,,
1557947992563,,,,8.878976710015191,,,,,,
1557947992569,,31.28154828509798,,,,,,,,
1557947992590,1.0,,,,-12.368446350097656,-4.745307922363281,2.3355438709259033,1000.4599609375,28.238034010110766,41.574152931305434
1557947992609,,28.78250635855658,0.0,,,,,,,
1557947992633,,,,4.35694735622231,,,,,,
1557947992649,,28.87661833863882,,,,,,,,
1557947992651,,,,,-12.301408767700195,-6.172252178192139,3.9205052852630615,,42.78451328172957,41.64348763960481
1557947992678,1.0,,,,,,,,,
1557947992689,,40.39204233833638,,,,,,,,
1557947992696,,,,6.732336598767293,,,,,,
1557947992698,,,84.9072265625,,,,,,,
1557947992723,,,,,-10.429142951965332,-6.368576526641846,3.7672762870788574,,,42.83573337960612
1557947992724,,,,,,,,,50.25286068627497,
1557947992729,,39.89522282102202,84.9072265625,,,,,,,
1557947992767,,,,7.007691653431272,,,,,,
1557947992768,2.0,,,,-8.695740699768066,-6.1530985832214355,3.8582561016082764,,,42.71920043797136
1557947992769,,,,,,,,1000.4400024414063,78.87197144074827,
1557947992789,,38.93327441137225,84.9072265625,,,,,,,
1557947992797,,,100.8447265625,,,,,,,
1557947992813,2.0,,,7.601453852881713,,,,,,
1557947992829,,35.9060094976812,100.8447265625,,,,,,,
1557947992837,,,,,-8.063671112060547,-6.507440090179443,3.2166099548339844,,94.0351621529058,42.78995287431484
1557947992869,,36.6958387331121,100.8447265625,,,,,,,
1557947992879,,,98.9501953125,,,,,,,
1557947992880,,,,7.984076626870526,,,,,,
1557947992908,,,,,-7.704541206359863,-6.660669326782227,1.1192892789840698,,107.09770086506927,42.82032285982845
1557947992909,,33.98503682673785,98.9501953125,,,,,,,
1557947992949,,34.70548682275299,98.9501953125,,,,,,,
1557947992952,2.0,,,7.650739905784082,,,,,,
1557947992955,,,0.0,,,,,,,
1557947992969,3.0,,,,-6.224924564361572,-4.4723687171936035,-0.5805938839912415,1000.4299926757813,101.02860650446019,43.420848639438894
1557947993009,,34.78942522918704,,,,,,,,
1557947993015,,,,5.657053516282481,,,,,,
1557947993043,,,,,-6.478709697723389,-4.9799394607543945,-2.1559786796569824,,98.76428951157425,43.47988063711647
1557947993048,,31.466994483562317,,,,,,,,
1557947993088,,,,5.548833452951947,,,,,,
1557947993089,,32.44883235467016,,,,,,,,43.57109242053651
1557947993092,3.0,,,,,,,,,
1557947993095,,,0.0,,,,,,,
1557947993129,,30.057092455252853,,,,,,,,
1557947993146,,,,4.115309922330995,,,,,,
1557947993165,2.0,,,,-10.218452453613281,-5.382165431976318,-0.3076549172401428,1000.4599609375,99.46057948613287,43.89863377402483
1557947993169,,30.437406060676707,0.0,,,,,,,
1557947993209,,39.92594405896197,,,,,,,,
1557947993211,,,,2.3355138898537313,,,,,,
1557947993212,2.0,,,,,,,,,
1557947993238,,,,,-10.366893768310547,-4.7836151123046875,-0.11611878126859665,,,43.529990141876475
1557947993239,,,,,,,,,104.46610410994424,
1557947993269,,33.94848344233659,,,,,,,,
1557947993276,,,259.5703125,,,,,,,
1557947993285,,,,1.6389936056285825,,,,,,43.04160789010589
1557947993286,,,,,-10.903194427490234,-4.73573112487793,0.6596025824546814,,101.23348485880388,
1557947993309,,35.69233292306003,259.5703125,,,,,,,
1557947993331,,,,3.302713295966885,,,,,,
1557947993349,,27.649190981197375,259.5703125,,,,,,,
1557947993351,,,,,-9.90241813659668,-4.410119533538818,-1.1743559837341309,1000.3999633789063,86.85465941055224,43.43754126984537
1557947993354,2.0,,,,,,,,,
1557947993389,,27.310306828084776,,,,,,,,
1557947993400,,,,3.467607189631206,,,,,,
1557947993427,,,,,-8.403648376464844,-5.200206279754639,-2.160767078399658,,85.31596805471014,43.33439692282609
1557947993429,,28.29728141900892,0.0,,,,,,,
1557947993473,,,,3.3054110409074733,,,-2.9747955799102783,,,43.45860313168421
1557947993474,,,,,-8.078036308288574,-5.918466567993164,,,81.47046909915542,
1557947993489,,29.245891165817277,,,,,,,,
1557947993495,2.0,,,,,,,,,
1557947993523,,,,3.893578078881642,,,,,,
1557947993529,,35.28014396430552,0.0,,,,,,,
1557947993548,6.0,,,,-9.476250648498535,-6.162675380706787,-1.0067617893218994,1000.449951171875,80.25190870971176,44.19513568262203
1557947993569,,43.25555512910991,,,,,,,,
1557947993595,,,,3.203054734366501,,,,,,
1557947993600,,,,,-10.826580047607422,-7.053318023681641,0.2669534981250763,,90.59129198092614,43.98283796437414
1557947993609,,38.71676565506296,,,,,,,,
1557947993621,,,158.11163039434524,,,,,,,
1557947993622,,,158.11163039434524,,,,,,,
1557947993623,6.0,,,,,,,,,
1557947993648,,,,4.21604821616584,,,,,,
1557947993649,,36.62876961121218,158.11163039434524,,,,,,,
1557947993677,,,,,-11.228805541992188,-6.36378812789917,3.666719913482666,,94.14415831168088,44.12539012401474
1557947993689,,38.62727155980296,158.11163039434524,,,,,,,
1557947993736,7.0,,,5.8141634621961495,-8.04930591583252,-3.4093432426452637,4.619612216949463,1000.4400024414063,83.16458823975034,43.99841005357043
1557947993749,,41.097947228996986,158.11163039434524,,,,,,,
1557947993755,7.0,,,,,,,,,
1557947993761,,,186.4703369140625,,,,,,,
1557947993782,,,,5.6204264379241025,,,,,,
1557947993789,,36.2229704318714,186.4703369140625,,,,,,,
1557947993803,,,,,-9.160215377807617,-2.719813108444214,2.426523447036743,,75.901050887657,43.62361695553877
1557947993829,,35.53602593272047,186.4703369140625,,,,,,,
1557947993837,,,,4.636432230708873,,,,,,
1557947993856,,,,,-10.759542465209961,-3.442862033843994,2.388216257095337,,78.23383369678311,43.86365373061095
1557947993869,,33.038715286841594,,,,,,,,
1557947993880,7.0,,,,,,,,,
1557947993904,,,,3.450110314858408,,,,,,
1557947993909,,31.468557736474146,,,,,,,,
1557947993921,,,158.9276123046875,,,,,,,
1557947993931,,,,,,,,,,43.74265641274705
1557947993932,2.0,,,,-11.262324333190918,-4.721365928649902,2.4361002445220947,1000.4299926757813,90.30441720559645,
1557947993949,,29.473114163763423,158.9276123046875,,,,,,,
1557947993982,,,,3.448920127928179,-10.074800491333008,-5.588066577911377,3.0825347900390625,,110.58867885175448,42.52128828199999
1557947993983,,,,,,,,,126.50466569347418,
1557947994004,2.0,,,,,,,,,
1557947994009,,28.901333035666134,158.9276123046875,,,,,,,
1557947994031,,,,4.46016375082845,,,,,,
1557947994049,,28.76040939295189,,,,,,,,
1557947994055,,,,,-10.78348445892334,-6.205770969390869,3.312378168106079,,127.81057054202392,40.76505898605782
1557947994089,,31.570503083960908,0.0,,,,,,,
1557947994105,,,,5.984052763945974,,,,,,
1557947994109,1.0,,,,-10.591948509216309,-6.694188117980957,3.6332011222839355,,,39.599116657741185
1557947994110,,,,,,,,1000.3999633789063,159.40041401938635,
1557947994129,,37.98254029715344,,,,,,,,
1557947994133,1.0,,,,,,,,,
1557947994155,,,,7.411266575519867,,,,,,
1557947994169,,42.901579339483234,,,,,,,,
1557947994176,,,0.0,,,,,,,
1557947994183,,,,,-10.47702693939209,-7.4986395835876465,3.7672762870788574,,165.3368046346112,39.06891406471371
1557947994229,,50.05593899476054,,,,,,,,
1557947994232,,,,9.405386140512704,,,,,,
1557947994261,,,,,-9.47146224975586,-9.217676162719727,2.8335378170013428,,171.0037442870791,39.11905148169522
1557947994264,1.0,,,,,,,,,
1557947994269,,39.803382242915845,,,,,,,,
1557947994278,,,50.546875,,,,,,,
1557947994288,,,,10.444470299582798,,,,,,
1557947994309,,41.69766034920646,50.546875,,,,,,,
1557947994311,10.0,,,,-6.3302693367004395,-7.7428483963012695,0.18555063009262085,1000.4599609375,161.6367545574319,39.18175580867622
1557947994349,,43.84634176763282,50.546875,,,,,,,
1557947994361,,,,8.579507907369582,,,,,,
1557947994388,,,,,-6.478709697723389,-5.214571475982666,0.061052143573760986,,164.69303198458084,39.81657993173607
1557947994389,,41.52610680103411,,,,,,,,
1557947994391,10.0,,,,,,,,,
1557947994413,,,,5.476033445045763,,,,,,
1557947994429,,38.6321693834771,,,,,,,,
1557947994438,,,,,-9.006986618041992,-5.674258232116699,-0.6811503767967224,,161.04939926994584,40.19801052541551
1557947994484,,,,3.937510778018793,,,,,,
1557947994489,,31.00113935420008,,,,,,,,
1557947994498,,,37.06728980654762,,,,,,,
1557947994508,2.0,,,,-9.533711433410645,-4.8937482833862305,-0.4273650050163269,,153.41781034423715,40.822544070282035
1557947994509,,,,,,,,1000.3200073242188,,
1557947994529,,28.976889326204688,37.06728980654762,,,,,,,
1557947994536,2.0,,,,,,,,,
1557947994558,,,,1.181325116872379,,,,,,
1557947994559,,,,,-9.457097053527832,-3.797203779220581,0.28131869435310364,,156.40865455913735,40.94410928595638
1557947994560,,,,,,,,,150.20621441536213,
1557947994569,,41.65060316211162,37.06728980654762,,,,,,,
1557947994607,,,,1.9245675307150416,,,,,,
1557947994609,,42.149361920102926,,,,,,,,
1557947994635,,,,,-9.351752281188965,-2.537853717803955,-0.1496376097202301,,144.95382626437902,40.54799735583859
1557947994649,,33.76752935355616,,,,,,,,
1557947994655,2.0,,,,,,,,,
1557947994656,,,38.8037109375,,,,,,,
1557947994688,1.0,,,3.916506797828458,,,,,,40.86575750142926
1557947994689,,,,,-9.99339771270752,-2.911349296569824,0.7553706169128418,1000.3599853515625,124.2466597953813,
1557947994691,,30.320825281392608,38.8037109375,,,,,,,
1557947994734,,,,4.643773921119411,,,,,,
1557947994749,,27.52322997832209,38.8037109375,,,,,,,
1557947994757,,,,,-11.252747535705566,-4.127603530883789,0.6308721303939819,,133.00767514186498,41.05033602652877
1557947994785,1.0,,,,,,,,,
1557947994789,,26.58677043104637,,,,,,,,
1557947994805,,,,5.1196508637240745,,,,,,
1557947994829,,35.908403840670026,0.0,,,,,,,
1557947994833,,,,,,-3.931279182434082,1.2198457717895508,,,41.03242535083647
1557947994834,,,,,-10.453084945678711,,,,125.36028115841685,
1557947994869,,38.71460036169053,,,,,,,,
1557947994880,,,,5.05890631575366,,,,,,
1557947994881,16.0,,,,-12.057199478149414,-5.363011837005615,1.1240776777267456,1000.3899536132813,108.98615254792941,40.46949410385561
1557947994909,,35.72973438509067,,,,,,,,
1557947994918,,,103.26132638113839,,,,,,,
1557947994930,16.0,,,5.706063294881622,,,,,,
1557947994950,,,,,,,0.52552729845047,,,40.911244824832345
1557947994951,,,,,-9.730035781860352,-2.293645143508911,,,93.88192685887657,
1557947994969,,33.073239618839835,103.26132638113839,,,,,,,
1557947994997,,,,5.740208125046308,,,,,,
1557947995009,,33.202665099916636,103.26132638113839,,,,,,,
1557947995020,,,150.732421875,,,,,,,
1557947995025,,,,,-10.122684478759766,-1.5322890281677246,-0.7529764175415039,,81.96935294632232,40.911244824832345
1557947995049,,32.95318729789563,150.732421875,,,,,,,
1557947995074,14.0,,,6.560334638573581,-12.583924293518066,-3.0166940689086914,0.5829881429672241,1000.3399658203125,89.48342163717177,41.36689509365349
1557947995089,,32.51416023611461,150.732421875,,,,,,,
1557947995121,,,,4.866382121995291,,,,,,
1557947995129,,31.877487654351043,150.732421875,,,,,,,
1557947995145,,,,,,,,,,41.49578479823128
1557947995146,,,,,-12.105083465576172,-4.4723687171936035,2.2158336639404297,,102.69984451133564,
1557947995169,,33.441033439261965,,,,,,,,
1557947995196,,,,3.685636663834059,,,,,,
1557947995197,14.0,,,,,,,,,
1557947995224,,,,,-10.898406028747559,-5.793968200683594,2.2828712463378906,,122.73591757362288,39.34476012783739
1557947995229,,33.90187744929002,,,,,,,,
1557947995243,,,63.525390625,,,,,,,
1557947995247,,,,4.2456593506230815,,,,,,
1557947995269,,37.670865714061435,63.525390625,,,,,,,
1557947995274,1.0,,,,-9.069235801696777,-6.387730121612549,2.8143839836120605,1000.3699951171875,164.30420297551035,36.22457873044845
1557947995309,,34.910337331549066,63.525390625,,,,,,,
1557947995317,,,41.982421875,,,,,,,
1557947995324,1.0,,,5.820354773860741,,,,,,
1557947995343,,,,,-8.78193187713623,-6.392518520355225,2.8095955848693848,,176.02973898783299,35.05909224706528
1557947995349,,34.906693502674656,41.982421875,,,,,,,
1557947995371,,,,6.736809168910777,,,,,,
1557947995389,,31.544120846350413,41.982421875,,,,,,,
1557947995391,,,,,-9.074024200439453,-7.268796443939209,3.3698389530181885,,189.69289402712718,35.24116849257783
1557947995397,,,48.9208984375,,,,,,,
1557947995429,,45.30834088724567,48.9208984375,,,,,,,
1557947995438,1.0,,,8.75594977681694,,,,,,
1557947995465,3.0,,,,-9.591172218322754,-8.17380428314209,2.876633405685425,1000.3399658203125,190.538280201078,35.18422991963864
1557947995489,,40.69064021379604,48.9208984375,,,,,,,
1557947995499,,,44.13309151785714,,,,,,,
1557947995513,,,,9.1488728146858,,,,,,
1557947995529,,39.90196846770508,44.13309151785714,,,,,,,
1557947995533,,,,,-8.815450668334961,-8.044517517089844,2.12485408782959,,183.84097919155704,34.93222122220924
1557947995562,3.0,,,8.082479635036593,,,,,,
1557947995569,,42.99867914711705,44.13309151785714,,,,,,,
1557947995582,,,,,,,0.7314286231994629,,,34.54128002200372
1557947995583,,,,,-8.04930591583252,-4.017470359802246,,,175.299728369342,
1557947995610,,36.82950448785402,,,,,,,,
1557947995628,,,,3.1459267878177144,,,,,,
1557947995649,,38.034182055128525,,,,,,,,
1557947995655,2.0,,,,,,,,,34.7525542858686
1557947995656,,,,,-9.533711433410645,-5.190629482269287,-0.16879121959209442,1000.3699951171875,172.1961860331366,
1557947995661,,,53.8330078125,,,,,,,
1557947995708,2.0,34.15274170166527,,2.825577742652456,,,,,,
1557947995709,,,53.8330078125,,,,,,,
1557947995725,,,,,,,,,,34.891116464299415
1557947995726,,,,,-9.251194953918457,-4.697423934936523,0.11851298063993454,,168.25799458035564,
1557947995749,,35.202536604817915,53.8330078125,,,,,,,
1557947995759,,,43.16127232142857,,,,,,,
1557947995773,,,,0.7142669351697717,,,,,,
1557947995774,,,,,-9.136273384094238,-4.5154643058776855,0.7601590156555176,,168.51188637218334,35.27718811602324
1557947995789,,42.25994152801199,43.16127232142857,,,,,,,
1557947995820,,,,1.3087919626003162,,,,,,
1557947995829,,36.08661562314409,43.16127232142857,,,,,,,
1557947995847,,,,,,,,,,35.20809599148962
1557947995848,0.0,,,,-9.064447402954102,-2.9448680877685547,0.04668693244457245,1000.4199829101563,155.39389335414856,
1557947995869,,34.71173018861042,43.16127232142857,,,,,,,
1557947995876,,,40.2490234375,,,,,,,
1557947995894,,,,3.5748842714158053,,,,,,
1557947995909,,27.402590386704155,40.2490234375,,,,,,,
1557947995913,,,,,-9.725247383117676,-2.978386878967285,0.9804255962371826,,152.36366626849406,35.370751365853955
1557947995964,,,,4.743574313603273,,,,,,
1557947995968,,26.774287162749253,,,,,,,,
1557947995969,,,40.2490234375,,,,,,,
1557947995990,,,,,,,-0.10175357013940811,,,35.34020441175906
1557947995991,0.0,,,,-10.96544361114502,-2.7964274883270264,,,132.067431300721,
1557947996009,,26.369755351156492,,,,,,,,
1557947996011,,,,6.043610078282708,,,,,,
1557947996038,6.0,,,,-10.357316970825195,-3.663128614425659,0.9469067454338074,1000.3999633789063,107.85787359893499,35.8286205094115
1557947996049,,26.591334641237438,0.0,,,,,,,
1557947996085,,,,5.42658919161167,,,,,,
1557947996089,,34.21477873385831,,,,,,,,
1557947996104,,,,,-11.118672370910645,-3.974374771118164,1.1623848676681519,,122.78118806744172,35.6894949087891
1557947996129,,37.796608881946995,,,,,,,,
1557947996131,6.0,,,,,,,,,
1557947996143,,,323.67222377232144,,,,,,,
1557947996144,,,323.67222377232144,,,,,,,
1557947996158,,,,5.659542579634273,,-6.435614109039307,1.866280198097229,,,35.81857166688532
1557947996159,,,,,-12.310985565185547,,,,130.11040451859392,
1557947996169,,33.30439563046249,323.67222377232144,,,,,,,
1557947996202,,,,5.812359879968512,,,,,,
1557947996229,,32.108967925917554,323.67222377232144,,,,,,,
