timestamp,AccX,AccY,AccZ,BarometerSensor,BrightnessEV,CompassSensor,LinearAccelerometerSensor,MagneticRotationSensor,PitchSensor,DecibelSource
1557947495718,-0.9701325988769531,3.786376190185547,8.589887237548828,999.1874694824219,0.39535383793067636,216.15878295898438,0.1341012440679666,49.46292154873517,0.0,22.69512944217916
1557947495755,-0.6574328613281251,3.306324462890625,9.004225616455079,999.1636657714844,0.43244315666589656,224.87408447265625,0.15380523786505082,49.46291994501901,0.0,19.68482948553935
1557947495820,-1.4347663879394532,3.315754852294922,10.31190628051758,999.1636657714844,0.4968918643927386,229.31761169433594,0.39822857254786326,49.46292001703574,0.0,21.172712956557646
1557947495902,-0.6785389709472657,1.6700770568847658,11.162437591552735,999.1636657714844,0.417721650959131,229.31761169433594,0.6509050641391844,49.46291150108485,0.0,22.227164711475833
1557947495954,-0.0383203125,1.2467573547363282,9.443711700439454,999.1636657714844,0.22824385209541811,240.37185668945312,0.4202479337077143,49.462909141432775,0.0,24.578818967339924
1557947496023,0.6370751953125,0.5084925842285156,10.291548614501954,999.1636657714844,-0.09075553459124831,245.14508056640625,0.32844812046870914,51.20462762971367,0.0,22.20108088040055
1557947496088,-0.683778076171875,1.8217117309570314,9.87945556640625,999.1636657714844,-0.13474618509573563,245.66897583007812,0.2927483834594207,51.2046241141885,0.0,20.293837776852097
1557947496154,-0.48514114379882817,0.9190887451171875,9.325906677246094,999.1636657714844,-0.27318957535506044,250.5268096923828,0.18649976338714408,51.20462079769006,0.0,19.344984512435676
1557947496220,-0.9598040771484375,1.2796888732910157,9.9249609375,999.1636657714844,-0.31951836656466703,254.7841796875,0.2018291432961358,51.204608470029946,0.0,19.138138523837167
1557947496287,-0.880169677734375,0.9678872680664063,10.040670318603516,999.1636657714844,-0.41914958599732677,261.6978454589844,0.07577319298889162,51.20460306059458,0.0,16.434526764861875
1557947496354,-0.143701171875,2.25850341796875,7.987240447998047,999.1636657714844,-0.5275067640877453,265.50396728515625,0.6151668182456148,51.20459856398948,0.0,20.453229787866576
1557947496420,-2.256258087158203,2.9020152282714844,9.55942108154297,999.1636657714844,-0.6126921769442136,268.8527526855469,0.43842911832021203,51.20459336955248,0.0,17.24275869600789
1557947496488,-1.2124786376953125,2.628384246826172,10.566377105712892,999.1636657714844,-0.6894318834320036,274.2025451660156,0.3574938480425849,51.58401770058188,,15.797835966168101
1557947496554,-1.841470642089844,2.488125915527344,11.905791778564454,999.1636657714844,-0.7487966289770349,272.34130859375,0.45382936297475107,51.58401264680827,0.0,36.23766000133931
1557947496620,-2.255659332275391,1.6115487670898438,12.489877166748048,999.1362762451172,-0.7525733197225187,273.7677307128906,0.36355381324698943,51.58400459091502,0.0,37.5495958772171
1557947496687,-1.6590000915527345,0.8482859802246094,10.95616653442383,999.1362762451172,-0.7206009299842389,275.18035888671875,0.41915279133506594,51.58399727160573,,35.87823171318955
1557947496754,-3.4696348571777347,-0.0628692626953125,12.224179687500001,999.1362762451172,-0.6796824183895154,275.18035888671875,0.5694912194597087,51.58399674463769,191.97998046875,32.52124552505644
1557947496820,-1.8702108764648437,0.9083111572265625,9.005872192382814,999.1362762451172,-0.6796824183895154,273.8267822265625,0.8191076678783106,51.583982852998005,191.97998046875,31.414497734004673
1557947496888,-2.0315753173828126,0.01526824951171875,9.552535400390626,999.1362762451172,-0.6422077129708527,269.90264892578125,0.1856767969841557,51.583981155004025,0.0,27.520484478194387
1557947496954,-2.5557852172851563,1.379231872558594,6.763535156250001,999.1362762451172,-0.7084414113709392,268.44189453125,0.7798081721437444,51.58397674149938,0.0,28.704039052790268
1557947497022,-1.6601976013183595,-0.6391708374023438,6.318959655761719,999.1362762451172,-0.7983269148881343,265.98602294921875,0.48934324010001645,51.58397043641355,0.0,24.913616938342727
1557947497087,-2.3523582458496093,1.3361215209960937,5.7895106506347656,999.1362762451172,-0.8401470905827613,262.5401916503906,0.41484698121264385,51.583960557311734,0.0,23.69215857410143
1557947497153,-3.2398626708984377,-1.6699273681640625,9.38084243774414,999.1362762451172,-1.094719917668359,259.273681640625,1.0317882252482642,51.58395116221877,0.0,23.74748346010104
1557947497220,-4.388873291015625,-1.6094531250000002,12.359797668457032,999.1362762451172,-1.3426474311119445,257.30865478515625,0.9714730005725909,51.583945557748024,0.0,24.04833716619938
1557947497288,-3.996090087890625,-0.5459147644042969,11.02038299560547,999.1362762451172,-1.4681783131958035,261.00103759765625,0.18271068295191237,51.58393843170682,0.0,28.987251815894936
1557947497354,-5.327122192382813,-2.023192749023438,11.263627166748048,999.1362762451172,-1.623829183655998,263.4750671386719,0.4467276150303707,51.58392495086185,0.0,24.800069429571504
1557947497420,-6.17959945678711,-0.5095404052734376,10.543175354003907,999.1362762451172,-1.7952597188240684,267.2820739746094,0.39661939096029586,51.5839221522255,0.0,25.31478917042255
1557947497488,-4.80964828491211,-0.016016693115234376,7.563172302246094,999.1362762451172,-1.8218626132175875,269.45916748046875,0.850639078941183,51.58391260650864,0.0,23.07496037913213
1557947497554,-5.581443328857422,-0.49292495727539065,7.506290588378906,999.1362762451172,-1.3475441761804239,274.07177734375,0.25704235779987383,51.583910421411886,0.0,33.490831687795904
1557947497620,-4.495751037597657,-1.0050100708007812,6.867868194580079,999.1111755371094,-0.983147266415836,276.6990966796875,0.35256002363143624,51.583910559063064,0.0,27.56636108245848
1557947497687,-5.470973052978516,-0.9503736877441407,6.599925384521485,999.1111755371094,-0.5525129120859739,280.41033935546875,0.22076059031918857,51.5839094162615,0.0,21.613680022349747
1557947497754,-4.614154815673828,-0.6822811889648438,4.9653245544433595,999.1111755371094,-0.4875156572395382,283.5992736816406,0.475861681887662,51.583911518716995,0.0,21.931245983544617
1557947497820,-5.930068359375,0.22722747802734375,6.696324920654297,999.1111755371094,-0.15078296163734167,287.788818359375,0.4904338136004266,51.583912096346516,0.0,33.780343224573315
1557947497888,-9.055419158935548,0.41029678344726567,5.851781158447266,999.1111755371094,-0.3902625510411077,286.6307373046875,0.869186389831286,51.58390976693942,0.0,29.263424466256552
1557947497954,-8.888516235351563,1.0123448181152344,6.351891174316407,999.1111755371094,-0.3639371359577354,294.12744140625,0.2153401097301563,51.583909835737465,0.0,27.82472624166286
1557947498021,-9.984686737060548,-1.855990447998047,4.018992462158203,999.1111755371094,-0.554099162977925,292.30621337890625,0.8522475838934638,51.58390957822053,0.0,27.291647896927703
1557947498088,-8.824000396728517,-2.4933650207519533,4.340972900390625,999.1111755371094,-0.26770267565480166,295.84759521484375,0.38637586994977247,51.58391133303813,0.0,26.73020907128896
1557947498155,-9.047934722900392,-4.211043090820313,3.340453491210938,999.1111755371094,-0.004143112084682109,300.0274963378906,0.576770123880033,51.58390856696682,0.0,22.4551266781415
1557947498220,-9.014554138183595,-3.0997540283203127,3.4188903808593754,999.1111755371094,0.1725575617859385,304.752685546875,0.15960482766247192,51.58390977520512,0.0,21.522883443830562
1557947498288,-8.792416076660157,-2.4995022583007813,3.1922616577148437,999.1111755371094,-0.7642070221080766,307.3807373046875,0.20829922256228808,51.58390781626445,0.0,20.253058652647702
1557947498354,-11.76762908935547,-2.847977600097656,0.7255412292480469,999.1111755371094,-3.2623162317107366,311.185546875,0.9811301323254449,51.583908428632114,0.0,22.278867046136735
1557947498420,-13.122162322998047,-2.0969892883300782,1.1576925659179689,999.1111755371094,-3.614273558027259,317.22882080078125,0.5910367706136982,51.58390857080199,0.0,33.12388949370592
1557947498488,-13.345647583007814,-2.7903474426269534,1.5431410217285157,999.1111755371094,-3.614273558027259,326.04559326171875,0.20525466581362847,51.58390874556143,0.0,28.007170782823852
1557947498554,-11.482921142578126,-0.7288343811035156,1.179547119140625,999.1111755371094,-3.614273558027259,329.5765686035156,0.6024236540326341,51.583908997212696,0.0,25.237464668115646
1557947498621,-11.439960479736328,0.336500244140625,1.828597412109375,999.0937805175781,-3.614273558027259,333.47418212890625,0.4165306000670949,51.58391037657773,0.0,27.61927838420529
1557947498687,-11.713142395019531,-2.895129547119141,3.7389248657226566,999.0937805175781,-3.581852080334881,334.53857421875,0.8821933753103821,51.5839076720511,0.0,28.457180179666587
1557947498753,-11.558513946533203,-4.972060546875,2.3129901123046874,999.0937805175781,-2.647440421962458,331.8854675292969,0.7352316205280164,51.58390745111268,,36.19197715792947
1557947498820,-10.79764617919922,-5.8228912353515625,2.4231610107421875,999.0937805175781,-1.3389955564387175,322.8287658691406,0.43562946896839666,51.58390810421133,84.1796875,27.87460474518415
1557947498888,-8.937614135742187,-5.973927154541016,1.816622314453125,999.0937805175781,-0.42605620435894725,316.58447265625,0.554963624639734,51.58390968681605,0.0,24.424797690644485
1557947498954,-8.086933135986328,-6.571484527587891,1.8866766357421876,999.0937805175781,-0.15942683565915952,311.87677001953125,0.38788360956861107,51.583909777013176,0.0,26.570558528571038
1557947499023,-7.503446502685548,-6.3881158447265625,0.4998106384277344,999.0937805175781,-0.014009139125612023,308.9873352050781,0.42248969148547594,51.58390969945502,0.0,33.119656603683666
1557947499088,-9.599537658691407,-7.477101287841797,0.267044677734375,999.0937805175781,-0.08386801505571212,312.05206298828125,0.5484479830876938,51.583912187111224,,31.482940974347457
1557947499154,-9.349707183837891,-3.8755906677246097,0.3929328918457031,999.0937805175781,-0.32355559350775054,316.7616271972656,0.8398697693321205,51.583910110183155,0.0,30.927206446840994
1557947499220,-10.962154083251953,-3.8086798095703127,0.7249424743652344,999.0937805175781,-1.1162141515669923,323.1689147949219,0.48109978658467134,51.58391145909741,0.0,28.518696007297663
1557947499288,-11.39355697631836,-3.207679595947266,0.6074368286132813,999.0937805175781,-1.9626372704054786,325.9925231933594,0.296310889374394,51.58390864170363,0.0,26.22214022966295
1557947499354,-10.172995147705079,-1.8196160888671875,0.6283932495117188,999.0937805175781,-3.9047172944762973,329.8087158203125,0.47176233756475,51.58390920342028,0.0,24.24881636631067
1557947499420,-8.674611053466798,-1.1359877014160156,0.5677693176269532,999.0937805175781,-3.550143220607543,332.2459411621094,0.5147283488723449,51.58390985110101,0.0,35.18118947143153
1557947499488,-7.934849395751954,-2.588866424560547,0.25102798461914066,999.0937805175781,-3.4589953325493474,333.3134460449219,0.42527375465418094,51.583908354183215,0.0,19.777236052888476
1557947499555,-8.710835723876954,-4.379742279052735,-0.32108230590820314,999.0937805175781,-3.4298489868898314,334.53070068359375,0.5598065528307297,51.58391288897295,0.0,23.180633349627616
1557947499620,-9.749974822998047,-4.027075653076172,0.6587800598144532,999.0937805175781,-3.4589953325493474,331.96539306640625,0.356999402862699,51.583911109518354,0.0,33.864989655506534
1557947499688,-12.805271301269531,-5.442232818603516,0.6741979980468751,999.0791320800781,-3.4589953325493474,329.7489013671875,0.9138657244539607,51.58390712699536,0.0,30.390173219974116
1557947499754,-10.309810638427734,-0.405955810546875,0.5445675659179687,999.0791320800781,-3.4298489868898314,331.70489501953125,1.239590023902957,51.58390908148882,0.0,25.71708831808688
1557947499820,-10.578052825927735,-1.3567785644531252,-0.3126997375488281,999.0791320800781,-3.345784722101357,336.9549865722656,0.2285742789236209,51.583909505551375,0.0,27.12649701627211
1557947499888,-11.87540496826172,-2.694097595214844,1.3681549072265626,999.0791320800781,-3.4298489868898314,346.302734375,0.6528253592851707,51.58390777538585,0.0,29.047155452786807
1557947499954,-11.40074203491211,-4.0408470153808596,3.0790969848632814,999.0791320800781,-3.751777081777194,348.81951904296875,0.5747995199078356,51.5839100967008,0.0,24.216039268698314
1557947500022,-10.02076171875,-5.037025451660156,2.5035438537597656,999.0791320800781,-3.9444221597195894,341.51165771484375,0.5274336337788115,51.583907561742016,,36.578204560156976
1557947500087,-9.567803649902345,-6.786587219238282,2.3261627197265624,999.0791320800781,-2.3872046494813377,332.8067626953125,0.5738732561581309,51.58390954848932,78.53515625,28.122446968003693
1557947500154,-8.77729751586914,-7.2317614746093755,1.6808546447753907,999.0791320800781,-0.5528096241642333,323.44952392578125,0.3899038333142357,51.58391161929672,78.53515625,28.920946026904804
1557947500220,-7.958200836181641,-7.42261459350586,1.0322534179687501,999.0791320800781,-0.2232584475283949,316.9796447753906,0.354123242819097,51.58391109981761,0.0,38.64807629026147
1557947500288,-8.84286117553711,-7.683222656250001,-0.048648834228515625,999.0791320800781,-0.2773410385249283,316.9796447753906,0.3686031276374916,51.58390836711981,,34.10439786210347
1557947500354,-9.214238891601562,-4.528383178710937,1.61663818359375,999.0791320800781,-0.18192147344624585,318.384521484375,0.8463308573343209,51.58390934645265,,32.6030994579492
1557947500420,-11.36197265625,-4.710704040527344,-0.5251080322265625,999.0791320800781,-0.22948207169222734,321.0458679199219,0.7414522699146736,51.58390912443107,171.39973958333331,29.395192526186186
1557947500488,-11.88214096069336,-4.513114929199219,0.7923023986816407,999.0791320800781,-0.6859098956348381,325.0953063964844,0.35845402133131155,51.583909922472984,0.0,35.97914471202528
1557947500576,-8.448431396484375,-2.3935226440429687,-1.1813433837890626,999.0791320800781,-4.025086471444377,331.66229248046875,1.0590353145828968,51.583910178509626,,37.26156466172755
1557947500620,-7.4306977844238284,-2.3245161437988284,-1.3883628845214844,999.0622711181641,-3.40127983469306,342.24029541015625,0.5005566784827333,51.583909658123154,,22.96665190261531
1557947500688,-8.643775177001954,-2.632276153564453,-1.1418255615234376,999.0622711181641,-3.40127983469306,348.0323181152344,0.1944146220458038,51.58391047080968,0.0,23.180633349627616
1557947500754,-11.042237548828126,-3.6410284423828125,0.7141648864746094,999.0622711181641,-3.647440421962458,351.275146484375,0.8398709679203012,51.583909800407135,0.0,24.69822015978163
1557947500820,-10.562784576416016,-2.9765602111816407,0.683778076171875,999.0622711181641,-3.7161531720464724,350.18475341796875,0.15429530742962586,51.58390857165164,0.0,33.81295623003826
1557947500888,-13.629158020019531,-4.114344177246094,0.2859054565429688,999.0622711181641,-3.6813877538857955,348.9619140625,0.8223634771271764,51.583908683125344,0.0,28.463371121298053
1557947500954,-10.00354751586914,-1.4929953002929688,0.5057981872558595,999.0622711181641,-3.581852080334881,348.9619140625,0.9258562955137722,51.58391156734947,0.0,28.075350280688532
1557947501022,-12.482841796875,-2.9009674072265628,0.7057823181152344,999.0622711181641,-3.4887426759433997,348.9619140625,0.49035794335941835,51.58390946092393,0.0,31.51676230847048
1557947501088,-12.097543029785157,-4.79722412109375,2.279459838867188,999.0622711181641,-3.864251811035606,345.150390625,0.6653089575928587,51.58391038502523,0.0,38.80927865267085
1557947501154,-11.55492141723633,-5.675896911621094,3.221151580810547,999.0622711181641,-4.266350254606952,339.93145751953125,0.5044998963573947,51.58390819623535,,38.412968874902816
1557947501220,-10.443332977294922,-5.978717193603516,2.7925927734375002,999.0622711181641,-2.0076159862067837,328.7416076660156,0.3520069653765696,51.583909320443354,65.849609375,31.83839037056421
1557947501288,-8.929381256103516,-6.625671844482422,2.0121157836914065,999.0622711181641,-2.427375477981233,317.52618408203125,0.5380601117040552,51.58390784567935,65.849609375,28.639173769578605
1557947501354,-7.754773864746094,-6.6964746093750005,1.2099339294433595,999.0622711181641,-2.301844595897374,307.7696533203125,0.48349915901607643,51.5839104785129,51.494140625,30.622058088197125
1557947501420,-7.836354217529297,-7.029232635498047,0.2549198913574219,999.0622711181641,-2.288547773283916,307.7696533203125,0.327977673886565,51.58390920273153,,35.94613509160098
1557947501488,-9.849817199707031,-6.769522705078125,-0.16660354614257813,999.0622711181641,-2.456819255873715,312.35992431640625,0.5172314877132889,51.58390882501055,180.9423828125,34.89958479424835
1557947501554,-10.86425765991211,-3.4789155578613284,0.5008584594726563,999.0622711181641,-2.6304673433587444,318.92327880859375,0.9209768333100115,51.58391014988958,180.9423828125,31.752218003430524
1557947501620,-12.769495697021485,-4.147425384521485,-0.4221221923828125,999.0428924560547,-2.9482076412826737,326.96044921875,0.6054730308888293,51.58391072015348,119.83205159505209,29.0848501887865
1557947501688,-12.555440826416016,-3.3287777709960937,1.1322454833984374,999.0428924560547,-3.550143220607543,332.3958740234375,0.4107231244061557,51.58390848911041,0.0,29.380190974762105
1557947501754,-11.171867980957032,-1.0109976196289063,0.118553466796875,999.0428924560547,-4.073705176664556,337.8297119140625,0.7308579180547499,51.58390935339955,0.0,37.1281800020785
1557947501820,-9.404642944335938,-0.7815248107910157,0.15672409057617187,999.0428924560547,-3.6813877538857955,342.6493225097656,0.5664028166860047,51.583911856773135,,28.162412999917834
1557947501888,-9.09194320678711,-3.3292268371582034,-0.6950047302246094,999.0428924560547,-3.7161531720464724,342.6493225097656,0.6575747782891733,51.58390927280421,0.0,25.13217600067939
1557947501954,-9.976154479980469,-2.729124755859375,0.011825408935546875,999.0428924560547,-3.9444221597195894,342.6493225097656,0.20801681123124585,51.583908768366186,0.0,24.329692908744057
1557947502020,-10.422376556396484,-2.5129742431640625,0.9605525207519532,999.0428924560547,-3.9444221597195894,339.4095764160156,0.3134615681429699,51.58390828025709,0.0,30.74450718954591
1557947502088,-12.822784881591797,-3.5446289062500003,0.7250921630859375,999.0428924560547,-3.9444221597195894,338.404052734375,0.683670220865001,51.58390945756681,,30.24485667699167
1557947502153,-9.579329681396485,-1.6564553833007813,0.40356079101562503,999.0428924560547,-3.7883029578023075,338.404052734375,0.7740603301725103,51.583910375207275,0.0,28.84795363948981
1557947502220,-11.095077667236328,-3.144361267089844,1.6512162780761719,999.0428924560547,-3.864251811035606,339.83831787109375,0.4523764883056663,51.58391155244282,0.0,28.69818207979328
1557947502288,-11.023526458740236,-4.237388305664063,2.319426727294922,999.0428924560547,-4.073705176664556,337.9115905761719,0.41827391399089847,51.58391148167571,0.0,31.42389466118836
1557947502354,-10.146799621582032,-4.677772521972656,2.470312957763672,999.0428924560547,-5.073705176664556,334.765869140625,0.303042097540176,51.583912290831066,0.0,37.2607487021537
1557947502420,-9.24133255004883,-4.855303344726563,2.1472846984863283,999.0428924560547,-4.318817674501087,329.99957275390625,0.2994051751685997,51.583910676718375,,31.96452541703389
1557947502488,-9.001082153320313,-5.629643096923829,2.1938378906250002,999.0428924560547,-3.614273558027259,321.2064514160156,0.25276309614519293,51.58391113613709,,27.450747915820575
1557947502554,-8.936566314697266,-6.644682312011719,1.4245875549316407,999.0428924560547,-3.1910621273027147,318.6890869140625,0.3666481829490484,51.58391284503027,0.0,22.30448921378274
1557947502620,-9.589508514404297,-7.164401550292969,0.9651928710937501,999.0163421630859,-3.0964252531646395,317.2545166015625,0.3037128152726583,51.58390827416475,,32.938043599193364
1557947502688,-9.943522338867188,-6.56519760131836,0.49951126098632814,999.0163421630859,-3.1668145810560375,319.6979064941406,0.2242145525984585,51.583908952869706,119.1357421875,31.889284837608535
1557947502755,-8.976682891845703,-3.1558872985839845,0.31868728637695315,999.0163421630859,-3.1668145810560375,324.6993103027344,0.9056252950273711,51.58391012846716,119.1357421875,32.87577809078706
1557947502820,-10.803334350585938,-4.080963592529297,-0.06062393188476563,999.0163421630859,-3.2923454631398963,332.9281311035156,0.4206064956467206,51.583908589052,64.3994140625,28.987251815894936
1557947502888,-11.096873931884765,-2.998414764404297,0.3938310241699219,999.0163421630859,-3.7161531720464724,337.9096984863281,0.3304612020638228,51.583910043160095,0.0,29.31457870689005
1557947502954,-9.898466033935547,-1.6819024658203126,0.4240681457519532,999.0163421630859,-4.614273558027259,343.24755859375,0.4233376753211742,51.58390913248574,0.0,46.62417815976578
1557947503023,-8.528514862060547,-2.0085232543945315,-0.9500743103027344,999.0163421630859,-3.7883029578023075,346.8374328613281,0.5697720109484304,51.583912718717315,,21.522883443830562
1557947503088,-8.339008941650391,-2.898871765136719,-0.5430706787109375,999.0163421630859,-3.7883029578023075,348.4840087890625,0.26990990643620016,51.58390953853543,0.0,23.69215857410143
1557947503154,-9.549691314697267,-3.780089263916016,-0.7641609191894532,999.0163421630859,-4.1668145810560375,348.4840087890625,0.38265311096876997,51.5839084890792,0.0,21.64352855784437
1557947503221,-10.865904235839844,-3.307222595214844,0.7888595581054688,999.0163421630859,-4.429848986889831,348.4840087890625,0.5469931449445643,51.5839072132223,0.0,44.667341988263026
1557947503288,-12.321477355957033,-4.454287261962891,0.8434959411621095,999.0163421630859,-4.373265458523464,349.95367431640625,0.5484277195677302,51.58390838516308,,35.7611089412084
1557947503354,-9.72138427734375,-2.997965698242188,0.9479786682128907,999.0163421630859,-4.318817674501087,351.43084716796875,0.612941800417423,51.58390806107426,117.1044921875,35.683190850951114
1557947503420,-9.635013885498047,-2.5441094970703126,0.9653425598144532,999.0163421630859,-3.903780175222243,354.2464294433594,0.3539291980252221,51.583911150885655,117.1044921875,31.622656142980215
1557947503488,-10.321037292480469,-3.929029541015625,2.690804443359375,999.0163421630859,-3.903780175222243,355.6992492675781,0.6043064871064365,51.583908032405276,70.65202985491072,31.10252917353403
1557947503554,-9.776170349121093,-4.5361669921875,1.9693048095703125,999.0163421630859,-4.11950886627768,357.8005065917969,0.2806246992004341,51.58390711631111,,37.16253825896037
1557947503620,-9.275461578369141,-4.419110412597656,2.109413452148438,998.9820098876953,-5.751777081777194,358.93621826171875,0.1555604338576413,51.583912566934444,104.697265625,37.4130920889957
1557947503688,-8.582402801513672,-4.4105781555175785,2.4698638916015625,998.9820098876953,-5.614273558027259,357.5794372558594,0.23123967977496532,51.58390934472562,104.697265625,31.652443261253108
1557947503754,-8.75334732055664,-4.813390502929688,2.3367906188964844,998.9820098876953,-5.373265458523464,356.0310974121094,0.10320643853060753,51.5839089047651,,31.136091510730278
1557947503821,-8.589587860107422,-5.647156677246094,2.073787536621094,998.9820098876953,-4.6813877538857955,352.1643371582031,0.24757547521573994,51.58391081389752,0.0,32.410481506716444
1557947503888,-10.081385650634767,-6.80230453491211,1.4271322631835939,998.9820098876953,-4.266350254606952,351.0218811035156,0.5325912446644863,51.58390864030733,0.0,30.569048513364727
1557947503954,-11.118878173828126,-6.483168182373047,0.7342231750488282,998.9820098876953,-4.2157241815369835,353.93719482421875,0.4122599542105808,51.583909572383064,0.0,28.494194137968996
1557947504023,-8.715326385498047,-3.220403137207031,0.3703298950195313,998.9820098876953,-4.373265458523464,0.303314208984375,0.9721215955535296,51.58390989651609,0.0,27.37987326333431
1557947504088,-9.491612091064454,-2.580483856201172,-0.22887405395507815,998.9820098876953,-4.429848986889831,6.850809097290039,0.41629225072238973,51.58390834257846,0.0,29.047155452786807
1557947504154,-10.554851074218751,-3.180436248779297,-0.3920347595214844,998.9820098876953,-4.751777081777194,18.40740394592285,0.3017274090018968,51.583910583934696,0.0,25.06505032404872
1557947504220,-9.423952789306641,-2.9490174865722656,0.15298187255859375,998.9820098876953,-4.429848986889831,25.567773818969727,0.24469932500088412,51.58390948218094,0.0,38.54063011866421
1557947504288,-8.487200775146485,-2.4770489501953126,-0.8797206115722657,998.9820098876953,-4.1668145810560375,32.02335739135742,0.3896466559845862,51.58390703149423,,33.15130317183602
1557947504354,-8.142317962646485,-3.0886770629882814,-0.5658233642578125,998.9820098876953,-3.6813877538857955,37.231727600097656,0.19997221065686038,51.58390866425377,0.0,31.03119253545714
1557947504420,-7.771988067626953,-3.8372703552246095,-0.7015910339355469,998.9820098876953,-3.7883029578023075,39.41804504394531,0.25593216056632034,51.58390915980815,0.0,28.543060418010807
1557947504488,-7.7918966674804695,-4.53856201171875,-0.5595364379882812,998.9820098876953,-3.903780175222243,39.41804504394531,0.23309067532821146,51.58390912361455,0.0,26.60865478003869
1557947504553,-7.8975769042968755,-4.598138122558594,-0.17453704833984376,998.9820098876953,-4.073705176664556,39.41804504394531,0.1276065142003436,51.58390831190363,0.0,28.93206753059848
1557947504620,-8.692573699951172,-4.205504608154297,-0.22632934570312502,998.9502716064453,-4.2157241815369835,39.41804504394531,0.2191634316687555,51.58391069452055,0.0,27.520484478194387
1557947504688,-10.6578369140625,-5.1007928466796875,0.5957611083984375,998.9502716064453,-4.373265458523464,42.45063400268555,0.6157171276723137,51.583913479083385,0.0,27.041505168397993
1557947504754,-9.893526306152344,-3.2927027893066407,1.7748591613769533,998.9502716064453,-4.429848986889831,43.59857177734375,0.5332197544365701,51.58390995050016,0.0,27.75974331129369
1557947504820,-9.140741729736328,-2.5969496154785157,1.4531781005859377,998.9502716064453,-4.429848986889831,46.03302001953125,0.34068193030847527,51.5839088610036,0.0,25.13217600067939
1557947504888,-10.997330932617189,-4.027375030517578,1.8708096313476563,998.9502716064453,-4.266350254606952,50.7479248046875,0.5156299464002843,51.58390867061733,0.0,23.242824552976927
1557947504954,-11.713591461181641,-3.3820669555664065,2.3429278564453124,998.9502716064453,-4.318817674501087,56.71714401245117,0.3295613772946839,51.58391027919505,0.0,24.24881636631067
1557947505022,-11.379486236572266,-3.992647247314453,3.0313462829589843,998.9502716064453,-4.373265458523464,75.81414031982422,0.24602377979981685,51.58391025225122,0.0,22.380461031287954
1557947505088,-10.721155242919922,-4.530628509521485,2.4013064575195315,998.9502716064453,-4.318817674501087,75.81414031982422,0.25922796205118687,51.58390869745735,0.0,23.07496037913213
1557947505154,-10.160421295166016,-5.445076904296875,3.149300994873047,998.9502716064453,-4.429848986889831,71.36028289794922,0.3634353378771176,51.583910055835574,0.0,33.40642377560705
1557947505221,-8.649014282226563,-5.143005065917969,3.0862820434570315,998.9502716064453,-2.9862423354142167,65.79296875,0.4241624752432945,51.58391103145793,0.0,29.319661147281728
1557947505288,-8.521629180908203,-5.42037826538086,2.271825714111328,998.9502716064453,-2.0402821751271056,61.323429107666016,0.2500168591774176,51.58391072699061,0.0,29.508514588885465
1557947505354,-8.987161102294923,-5.472020874023438,1.2723541259765625,998.9502716064453,-2.0402821751271056,62.891090393066406,0.31169025144198587,51.583909914443694,0.0,25.477747053878225
1557947505421,-7.889942779541016,-4.237687683105469,-0.4680766296386719,998.9502716064453,-2.266350254606952,67.88004302978516,0.6443043306943945,51.58391036299452,0.0,23.891660843645326
1557947505488,-7.242239685058594,-2.2441333007812503,-1.9790345764160158,998.9502716064453,-2.4443485565849463,77.44864654541016,0.7969600880078892,51.58391241701743,0.0,23.010299956639813
1557947505578,-9.723030853271485,-3.7784426879882815,-1.8288967895507813,998.9502716064453,-2.5191163249869186,87.44609832763672,0.6103077204143769,51.58391214999523,0.0,25.575072019056577
1557947505622,-10.843450927734375,-4.117936706542969,-1.987716522216797,998.9209747314453,-2.6307616808158274,95.11223602294922,0.4557455841679464,51.58391063640881,0.0,25.4282542695918
1557947505688,-10.083181915283204,-3.539539489746094,-1.6540603637695312,998.9209747314453,-3.1195088662776804,98.44074249267578,0.15030206078589325,51.583910005667775,0.0,21.931245983544617
1557947505754,-10.282417602539063,-3.921844482421875,-1.1222163391113282,998.9209747314453,-4.266350254606952,116.27383422851562,0.16777510352022773,36.994493751254545,0.0,22.600713879850748
1557947505821,-9.724078674316408,-3.7639228820800783,-1.7259109497070313,998.9209747314453,-3.903780175222243,127.28797912597656,0.17576615708330542,36.99449456794033,0.0,23.636119798921445
1557947505887,-9.239685974121095,-3.550167388916016,-1.5184423828125,998.9209747314453,-4.073705176664556,139.26895141601562,0.1667580686448066,36.99449200078128,0.0,23.69215857410143
1557947505954,-9.117839355468751,-3.2118708801269533,-1.1879296875,998.9209747314453,-4.318817674501087,148.9921417236328,0.14986388364688688,36.99449198243445,0.0,29.10090545594068
1557947506021,-9.467212829589844,-2.8993208312988283,-0.6541397094726563,998.9209747314453,-4.4887426759434,154.08358764648438,0.19929324671906282,36.994492312729236,0.0,27.839035792727348
1557947506087,-10.294841766357422,-3.1657667541503907,0.3975732421875,998.9209747314453,-4.82577766322097,160.36355590820312,0.37833239010455033,36.99449161979903,0.0,25.118833609788744
1557947506154,-12.353660430908203,-4.780159606933594,1.242865447998047,998.9209747314453,-4.986242335414216,166.2697296142578,0.7611253471687511,36.994493429242304,0.0,31.4674801363064
1557947506223,-11.386072540283203,-2.2647903442382815,2.3031106567382813,998.9209747314453,-3.9862423354142167,179.05812072753906,0.7603112079222246,36.994493576671026,0.0,28.920946026904804
1557947506291,-12.718152465820314,-3.1392718505859376,1.97589111328125,998.9209747314453,-4.4887426759434,185.2733612060547,0.4579175955031653,36.994493093985106,0.0,26.848453616444125
1557947506354,-12.89328826904297,-3.8706509399414064,2.9753627014160156,998.9209747314453,-4.6813877538857955,190.72813415527344,0.34924854646666925,36.9944923264353,0.0,25.327543789924974
1557947506423,-12.99298095703125,-5.771548004150391,3.3656011962890626,998.9209747314453,-4.751777081777194,189.28231811523438,0.5514888355445757,36.99449129999575,0.0,32.19060332448861
1557947506488,-11.834989013671876,-7.029082946777344,2.3677761840820315,998.9209747314453,-5.266350254606952,179.45582580566406,0.5634353755753172,36.99448952390917,0.0,37.395723444500916
1557947506554,-10.185569000244142,-7.015760650634766,1.5846047973632813,998.9209747314453,-4.2157241815369835,167.2371368408203,0.5518356581803533,36.70153260822154,,35.87598729721245
1557947506622,-9.021140441894532,-7.315736846923828,0.9726773071289063,998.9209747314453,-2.40127983469306,158.82809448242188,0.4674042279973397,36.7015320255065,50.1904296875,35.11348515490213
1557947506688,-9.153614959716798,-7.559729461669923,-0.31853759765625,998.8862609863281,-2.2033404570811514,153.41378784179688,0.4018195267267475,36.70153508124001,48.3984375,31.395642661758497
1557947506756,-9.2208251953125,-5.690267028808594,-0.3902384948730469,998.8862609863281,-2.30552085188763,158.74183654785156,0.45109143562069215,35.945639466069615,48.3984375,33.27563260187278
1557947506823,-10.39154067993164,-4.50069076538086,-1.469344482421875,998.8862609863281,-2.4443485565849463,164.13829040527344,0.5827511084426735,35.945641886443354,28.06640625,27.31588765186739
1557947506888,-11.415710906982422,-4.645140380859376,-1.415306854248047,998.8862609863281,-2.647440421962458,172.9173126220703,0.3411226908642283,35.94564193660006,,30.692980121155294
1557947506954,-10.28945297241211,-3.724105682373047,-0.58198974609375,998.8862609863281,-3.0076159862067837,178.00975036621094,0.37125234338065116,35.94564140893981,,31.010593549081158
1557947507024,-10.20517822265625,-3.0656250000000003,-0.0916094970703125,998.8862609863281,-3.82577766322097,185.6868133544922,0.2922743484307327,35.94564222084976,0.0,39.87040286979267
1557947507088,-9.889035644531251,-2.1597088623046874,0.31524444580078126,998.8862609863281,-3.864251811035606,191.92181396484375,0.3321733630077154,35.945640343467936,,33.39848783037637
1557947507155,-9.792336730957032,-2.442021789550781,-0.11660751342773439,998.8862609863281,-4.550143220607543,196.9044189453125,0.08661583196525234,35.94564121150487,34.375,23.26335860928751
1557947507223,-10.144404602050782,-3.5857933044433596,-0.047601013183593756,998.8862609863281,-4.903780175222243,198.33270263671875,0.29580782068509087,35.945644044971154,34.375,22.764618041732444
1557947507290,-10.38570281982422,-3.920197906494141,0.7738906860351563,998.8862609863281,-4.986242335414216,198.33270263671875,0.2691519139295412,35.94564225749604,,32.94906910605192
1557947507355,-12.072545013427735,-4.69663330078125,-0.027692413330078127,998.8862609863281,-4.82577766322097,197.15921020507812,0.5209768950421909,35.9456423620732,0.0,29.75431808509263
1557947507424,-9.05556884765625,-1.3738430786132814,-0.5028044128417969,998.8862609863281,-4.751777081777194,197.15921020507812,1.0097567212663743,33.876591036556455,0.0,30.909630765957317
1557947507489,-11.742631072998048,-2.315534820556641,-0.35326538085937503,998.8862609863281,-4.429848986889831,200.19827270507812,0.5119651272186004,33.87659154446369,0.0,28.680563618230416
1557947507556,-11.648626556396485,-2.7439439392089846,2.1811143493652345,998.8862609863281,-3.9444221597195894,199.6950225830078,0.6520548497260923,33.87659317556056,,27.92391689498254
1557947507624,-11.441756744384767,-4.5321253967285156,2.1839584350585937,998.8862609863281,-3.9444221597195894,193.72279357910156,0.502488838052686,33.87659122848214,66.3037109375,32.21674997070769
1557947507689,-10.668913879394532,-6.086942138671875,2.2043161010742187,998.8529968261719,-4.903780175222243,184.3745574951172,0.5473748843042215,33.8765902080245,66.3037109375,30.681858617461618
1557947507755,-9.414522399902344,-6.357729034423828,1.9309844970703125,998.8529968261719,-4.6813877538857955,174.6232452392578,0.35223040756486806,33.87659051843543,91.1328125,30.89905111439398
1557947507823,-8.067323913574219,-6.119125213623048,1.6176860046386718,998.8529968261719,-3.4298489868898314,165.36697387695312,0.49971824451082997,33.876590553387565,0.0,31.795517911651878
1557947507889,-8.660540313720704,-6.809339904785157,1.1600875854492188,998.8529968261719,-2.503849568333608,159.07005310058594,0.21830292543131755,33.61319307430892,0.0,30.342272607705503
1557947507956,-10.001152496337891,-7.7655514526367195,0.43604324340820316,998.8529968261719,-2.332238190263409,159.07005310058594,0.4919265543471693,33.61319511903104,,26.794278966121187
1557947508026,-9.544901275634766,-4.192631378173829,0.2436932373046875,998.8529968261719,-2.3594596589984334,164.14454650878906,0.8297784223631824,33.61319282614086,0.0,34.56214155357989
1557947508088,-11.124566345214845,-3.404370574951172,-0.6568341064453125,998.8529968261719,-2.4298489868898314,171.5675506591797,0.6127120139012222,33.61319405412743,0.0,30.0
1557947508155,-11.21437957763672,-3.400927734375,-0.13307327270507813,998.8529968261719,-2.6986657453176313,181.44659423828125,0.17097466062244523,35.2805262228631,0.0,31.983821300082944
1557947508224,-10.65349594116211,-2.355651397705078,-0.2508782958984375,998.8529968261719,-3.1195088662776804,184.85617065429688,0.307470676717563,35.280529645929946,0.0,24.683473304121573
1557947508292,-8.889264678955078,-1.1632310485839845,-0.015118560791015626,998.8529968261719,-3.82577766322097,189.42138671875,0.5995763032246629,35.28052924363508,,26.314437690131722
1557947508355,-8.159382476806641,-0.96998291015625,0.03143463134765625,998.8529968261719,-3.7883029578023075,189.42138671875,0.3320364442625354,35.28052901113846,0.0,21.2057393120585
1557947508424,-7.912695465087891,-3.0135333251953127,0.27812164306640624,998.8529968261719,-4.1668145810560375,189.32672119140625,0.49957644897345715,35.280526953190055,0.0,22.013971243204512
1557947508488,-8.37343734741211,-5.310207366943359,0.22632934570312502,998.8529968261719,-4.614273558027259,185.93487548828125,0.6978266990806391,35.280529043559135,0.0,20.374264979406238
1557947508554,-9.282047882080079,-6.853647766113282,-0.29114456176757814,998.8529968261719,-4.751777081777194,182.6966552734375,0.6247536867295712,35.28052696438827,0.0,34.28620672671939
1557947508624,-10.48150360107422,-6.815327453613282,-1.4048286437988282,998.8529968261719,-4.751777081777194,182.6966552734375,0.49417391792473814,35.280530480205755,0.0,31.61667412437736
1557947508688,-12.254566497802735,-5.6169195556640625,-0.6575825500488282,998.8356781005859,-4.82577766322097,181.5731201171875,0.60668599434702,35.280526407037414,0.0,27.101173651118163
1557947508755,-8.927884368896486,-2.2185365295410158,-0.4098477172851563,998.8356781005859,-5.073705176664556,183.25784301757812,1.155367253276801,35.28052930764491,0.0,26.5991620006985
1557947508824,-8.74616226196289,-0.9943821716308594,-0.219144287109375,998.8356781005859,-4.82577766322097,183.25784301757812,0.5829810259339802,35.280527070244815,0.0,26.159500516564012
1557947508888,-10.684930572509765,-2.7776239013671877,1.3823753356933595,998.8356781005859,-4.266350254606952,181.7081756591797,0.675965773842429,35.28052802645185,0.0,24.377505628203878
1557947508954,-10.21805145263672,-4.821324005126954,2.2216799926757815,998.8356781005859,-3.903780175222243,174.31207275390625,0.6676580860576802,42.18204411158886,0.0,32.74850320016665
1557947509023,-10.262359313964843,-5.023104400634766,1.5950830078125,998.8356781005859,-3.7883029578023075,164.98780822753906,0.21270967612240907,42.18203839723349,,33.356584522893016
1557947509088,-9.010662231445313,-4.311484222412109,2.032922515869141,998.8356781005859,-4.4887426759434,162.6060791015625,0.34807448602315294,42.1820314922105,,37.3870130043471
1557947509155,-8.765322418212891,-4.498295745849609,1.6229251098632813,998.8356781005859,-4.073705176664556,160.8054962158203,0.1610618404294648,42.18202800867602,54.31640625,33.991543339582165
1557947509223,-7.76749740600586,-4.5213478088378904,1.4591656494140626,998.8356781005859,-3.1910621273027147,159.08737182617188,0.29082376039511565,42.18202073619219,56.6162109375,28.135809885681915
1557947509291,-6.842421112060547,-4.793332214355469,1.2216096496582032,998.8356781005859,-2.614273558027259,158.0643310546875,0.3192431793003025,42.182015654096936,56.6162109375,36.508900778563124
1557947509354,-7.178472290039063,-5.284460906982422,0.38634658813476563,998.8356781005859,-2.3732654585234636,158.0643310546875,0.26742870675789665,42.18201439199737,,31.261314072619847
1557947509424,-9.65956283569336,-4.802612915039063,0.29368927001953127,998.8356781005859,-2.3732654585234636,167.73037719726562,0.6332858109688343,42.18201676544265,188.49870954241072,29.047155452786807
1557947509487,-12.701087951660156,-5.797893218994141,-0.096998291015625,998.8356781005859,-2.733855173779931,172.1619110107422,0.9511085804634386,42.18201678738801,0.0,28.457180179666587
1557947509554,-10.659782867431641,-3.3726365661621096,1.0112969970703125,998.8356781005859,-3.4298489868898314,182.44363403320312,0.6651088141880125,38.142293458672974,0.0,25.622928644564745
1557947509624,-10.855725402832032,-2.595901794433594,-0.5568420410156251,998.8356781005859,-4.550143220607543,188.3339385986328,0.46835648128858565,38.1422933061268,0.0,25.465426634781313
1557947509688,-9.713450775146486,-3.4275723266601563,1.3132191467285157,998.8266754150391,-4.266350254606952,189.86000061035156,0.4984699561117185,38.1422909484064,0.0,27.752462597402364
1557947509754,-8.55396194458008,-3.5676809692382814,0.2736309814453125,998.8266754150391,-3.864251811035606,189.86000061035156,0.4033026413622893,38.14228880782575,,40.12963699825778
1557947509824,-8.247998199462891,-3.6589910888671877,-0.659678192138672,998.8266754150391,-3.7883029578023075,188.7719268798828,0.3235673225197797,38.14228232997179,,25.171958979499745
1557947509888,-8.442294158935548,-4.055067443847657,-0.5709127807617188,998.8266754150391,-3.9444221597195894,187.12371826171875,0.11852658748735961,38.142276091847044,57.2021484375,23.283796034387375
1557947509955,-8.637338562011719,-4.887636108398437,-1.08973388671875,998.8266754150391,-4.1668145810560375,185.1417999267578,0.2791147373193213,38.14227231061835,0.0,22.92256071356476
1557947510023,-10.214309234619142,-5.698350219726563,-0.5379812622070312,998.8266754150391,-4.373265458523464,183.09298706054688,0.4944231659126594,38.14226682169113,0.0,32.335037603411344
1557947510087,-11.26377685546875,-6.456673278808594,0.6388714599609375,998.8266754150391,-4.318817674501087,184.7499237060547,0.5476080503061372,38.142264984405905,0.0,31.225435240687546
1557947510154,-11.715537414550782,-5.928870849609376,1.3072315979003908,998.8266754150391,-4.4887426759434,185.95376586914062,0.32755083039746935,37.33075365181394,0.0,30.330214446829107
1557947510223,-8.643326110839844,-2.150428161621094,0.7658074951171875,998.8266754150391,-4.4887426759434,187.33615112304688,1.2018281921421166,37.33075315131655,0.0,28.102325179950842
1557947510291,-9.332492980957031,-2.036964111328125,0.9357041931152345,998.8266754150391,-3.82577766322097,188.99447631835938,0.26994809964068767,37.33075295082217,0.0,26.22214022966295
1557947510355,-10.166857910156251,-3.310665435791016,1.9496955871582031,998.8266754150391,-3.614273558027259,188.99447631835938,0.4162348602043911,37.33074538220644,0.0,23.424226808222063
1557947510422,-9.748328247070313,-4.208348693847657,1.9857705688476563,998.8266754150391,-3.864251811035606,187.5021514892578,0.3012666153705667,37.33074443425389,0.0,27.90988475088816
1557947510487,-9.628726959228516,-4.695286102294922,2.0649559020996096,998.8266754150391,-5.4887426759434,187.9084014892578,0.20194844257835223,36.115493104521875,0.0,31.950689964685903
1557947510579,-9.798174591064454,-5.320535888671875,2.7866052246093753,998.8266754150391,-5.373265458523464,184.4121551513672,0.28105312094038076,36.11548825896996,0.0,26.08526033577194
1557947510624,-9.91972183227539,-5.907165985107422,2.685415649414063,998.8266754150391,-5.373265458523464,180.7843017578125,0.1605297086080708,36.11548519421184,0.0,35.27372082827612
1557947510688,-10.241402893066407,-6.606511688232422,2.688259735107422,998.8102722167969,-4.266350254606952,172.4541473388672,0.272311548220247,36.11547875357672,,31.631613749770185
1557947510755,-10.299332427978516,-7.398814086914063,1.2805870056152344,998.8102722167969,-3.4298489868898314,168.45571899414062,0.4392278648198017,36.115477440297234,,32.581581933407946
1557947510823,-8.35472625732422,-5.301226043701172,-0.5764512634277345,998.8102722167969,-3.1429678391016695,168.45571899414062,0.861679355986549,36.115475758623944,0.0,38.69700973673878
1557947510889,-7.807015228271485,-3.351380767822266,-0.8879534912109376,998.8102722167969,-2.923958057159874,175.5510711669922,0.6890610022263526,36.11547210746786,0.0,34.122925093230464
1557947510955,-9.734407196044922,-3.977977752685547,-0.015867004394531252,998.8102722167969,-2.733855173779931,179.81448364257812,0.44890802344964575,34.101254989214226,0.0,28.075350280688532
1557947511027,-10.14575180053711,-3.4840049743652344,-0.6319857788085937,998.8102722167969,-2.6813877538857955,183.97264099121094,0.2657376297569477,34.10125125286231,0.0,25.118833609788744
1557947511088,-9.455686798095703,-1.5929873657226563,-0.6692582702636719,998.8102722167969,-3.5191163249869186,191.60525512695312,0.5188787987451804,34.10124893802047,0.0,27.31588765186739
1557947511155,-8.376431121826172,-1.7027091979980469,-0.36703674316406254,998.8102722167969,-3.7883029578023075,199.19961547851562,0.3225659165670871,34.10124416348019,0.0,19.9563519459755
1557947511222,-8.447084197998047,-2.151625671386719,-0.8810678100585938,998.8102722167969,-3.7883029578023075,207.15286254882812,0.15330843732471774,34.10124331592935,0.0,18.260748027008265
1557947511291,-9.191486206054687,-4.647236022949219,-0.4183799743652344,998.8102722167969,-4.429848986889831,207.15286254882812,0.6739908503121921,34.10124267391901,0.0,19.86771734266245
1557947511354,-9.092392272949219,-5.847140808105469,-1.6998651123046875,998.8102722167969,-4.6813877538857955,207.15286254882812,0.5498362621175923,34.10124308391026,0.0,31.97004728023046
1557947511421,-10.24304946899414,-6.67297348022461,-2.022444305419922,998.8102722167969,-4.614273558027259,210.27664184570312,0.4615784286053284,34.10124011689987,0.0,27.16837723299524
1557947511488,-11.790232086181641,-6.985074462890625,-1.2668156433105469,998.8102722167969,-4.6813877538857955,217.67599487304688,0.5090215642650178,34.10124543861528,0.0,26.963563887333322
1557947511554,-8.242459716796876,-4.033512268066406,0.5167254638671875,998.8102722167969,-4.751777081777194,220.17404174804688,1.1477024519774908,34.10124380282021,0.0,30.842186867392385
1557947511623,-6.2737536621093755,-3.8672080993652345,-0.8044271850585938,998.8102722167969,-4.751777081777194,220.17404174804688,0.7483595482230808,34.10124446953806,0.0,24.94154594018443
1557947511687,-8.126450958251954,-4.783602447509766,0.868194580078125,998.7888336181641,-4.4887426759434,221.6100616455078,0.4996485687489269,34.10123873631626,0.0,28.241258339165487
1557947511754,-8.343798980712892,-5.9496775817871095,3.709735565185547,998.7888336181641,-4.2157241815369835,217.91673278808594,0.8783855370944688,34.101241235576765,0.0,28.773713458697742
1557947511820,-8.824449462890625,-5.758525085449219,4.381837921142578,998.7888336181641,-4.614273558027259,211.73861694335938,0.4002246373519672,34.10124049026466,,34.407517004791856
1557947511888,-10.046657867431641,-3.7348832702636723,3.0229637145996096,998.7888336181641,-4.373265458523464,217.30636596679688,0.6528725480825538,34.10124283521648,0.0,27.90988475088816
1557947511954,-10.1548828125,-4.054618377685547,2.924468536376953,998.7888336181641,-4.318817674501087,221.1844024658203,0.14901099919529104,34.10124155529954,0.0,33.18480725174518
1557947512025,-11.003318481445312,-5.254223785400391,2.325264587402344,998.7888336181641,-4.318817674501087,223.8312225341797,0.4130088813849741,34.10124341854453,,33.68472838440362
1557947512088,-10.523117065429688,-5.935906219482423,2.615211639404297,998.7888336181641,-3.3188176745010876,225.09100341796875,0.2516779132578857,34.10124234450248,32.2998046875,33.76394442037266
1557947512155,-9.267977142333985,-5.668113098144532,3.243604888916016,998.7888336181641,-2.614273558027259,223.87527465820312,0.3677967109038122,34.101241936401735,32.2998046875,29.73589623427257
1557947512221,-8.403674468994142,-6.226601715087891,2.161355438232422,998.7888336181641,-2.415493693912761,223.87527465820312,0.40203028021504195,34.10124154578782,,26.82145076373832
1557947512289,-8.622818756103516,-6.687343597412109,0.4812492370605469,998.7888336181641,-2.228215125720181,224.9728240966797,0.5009559167084046,34.101243165636326,0.0,23.283796034387375
1557947512354,-7.318730621337891,-3.407963104248047,-2.6334736633300784,998.7888336181641,-2.503849568333608,231.46078491210938,1.2360568823648386,34.10124193308255,0.0,28.208579894397
1557947512421,-7.975714416503907,-2.631976776123047,-3.066972198486328,998.7888336181641,-2.664314240526854,239.0260009765625,0.5188453042244933,34.10124205916167,0.0,27.551122663950714
1557947512488,-10.374326477050781,-4.591701507568359,-2.2158421325683593,998.7888336181641,-3.1668145810560375,245.46783447265625,0.7451934913774315,36.4755391157775,0.0,24.78566495593843
1557947512554,-9.975855102539063,-3.750151519775391,-1.6075071716308595,998.7888336181641,-3.6813877538857955,253.90087890625,0.22293302474975474,36.475538192539574,0.0,25.976951859255124
1557947512622,-9.47230224609375,-3.9745349121093754,-2.480940856933594,998.7888336181641,-4.550143220607543,265.4815979003906,0.20737784116917304,36.475538175566555,0.0,26.665179805548807
1557947512687,-9.64040267944336,-4.473597106933594,-1.7479151916503908,998.76953125,-3.903780175222243,280.5260314941406,0.19291396029733587,36.4755372469225,0.0,24.28134794028789
1557947512754,-9.044192504882814,-4.23199951171875,-1.6781602478027344,998.76953125,-4.266350254606952,293.1691589355469,0.1571409004785401,36.47553837088823,0.0,22.988530764097067
1557947512822,-8.057145080566407,-4.26358383178711,-1.8375787353515627,998.76953125,-4.4887426759434,303.3858642578125,0.2844100756550421,37.216450341999725,0.0,20.21189299069938
1557947512888,-7.970026245117188,-4.96966552734375,-1.7175283813476563,998.76953125,-4.550143220607543,315.6574401855469,0.20090675957491652,37.2164493449939,0.0,22.4551266781415
1557947512955,-9.167685699462892,-5.877677307128907,-1.146016845703125,998.76953125,-4.11950886627768,322.6217041015625,0.414716393513518,37.216449947489465,0.0,32.49198357391113
1557947513025,-10.415790252685547,-6.6524661254882815,0.3938310241699219,998.76953125,-3.4887426759433997,329.69549560546875,0.6086138506657233,37.21645063176158,,29.95196291597179
1557947513088,-11.170969848632813,-5.558540954589844,1.8312918090820314,998.76953125,-3.0513373636361014,335.7805480957031,0.5482226417343842,37.76728600093157,0.0,27.505083948513462
1557947513153,-8.176896057128907,-2.994672546386719,2.4765998840332033,998.76953125,-2.903780175222243,340.262451171875,1.0623406623683458,37.76728707866062,0.0,27.09269960975831
1557947513223,-9.527986450195312,-4.159699859619141,2.902464294433594,998.76953125,-3.4298489868898314,342.9914855957031,0.26276846285070005,37.767284842183535,0.0,24.216039268698314
1557947513288,-9.874665527343751,-4.25400375366211,3.6022590637207035,998.76953125,-4.2157241815369835,344.45330810546875,0.2585247318042196,37.76728554756045,0.0,25.69373909615046
1557947513354,-9.970765686035156,-5.135670318603516,2.286046142578125,998.76953125,-4.029311057306103,339.9660949707031,0.363957106334286,37.767286887193926,0.0,23.838153659804313
1557947513422,-10.064470825195313,-5.834716644287109,1.5959811401367188,998.76953125,-4.751777081777194,334.4156494140625,0.3372942910989141,37.76728792439236,0.0,26.55138434811382
1557947513488,-10.443931732177735,-5.9146504211425786,2.225721588134766,998.76953125,-4.6813877538857955,331.0422668457031,0.1625457706468352,37.767287653644495,0.0,27.993405494535818
1557947513554,-10.560239868164063,-6.722221069335938,2.691852264404297,998.76953125,-4.073705176664556,326.96380615234375,0.2681573507683828,37.76728661295832,0.0,30.993352776859577
1557947513621,-9.947713623046875,-7.212751007080079,1.8006056213378907,998.76953125,-2.4298489868898314,323.5368957519531,0.2937607858084467,37.76728592052714,0.0,35.46666025070184
1557947513688,-9.641450500488281,-7.778724060058594,0.8397537231445313,998.7493896484375,-2.062477921241302,318.995849609375,0.3597751416401981,37.76728682084854,,33.178544893314694
1557947513754,-7.275620269775391,-6.6788113403320315,-0.5649252319335938,998.7493896484375,-1.975673093704029,317.94403076171875,0.7839842007612784,37.767286511850116,59.769170851934526,41.44792078497715
1557947513822,-7.946225738525391,-4.290078735351563,-0.8988807678222657,998.7493896484375,-1.550143220607543,319.01019287109375,0.6812368424440789,37.76728569082558,59.769170851934526,34.01400540781544
1557947513888,-9.457033996582032,-5.523214416503906,-0.22528152465820314,998.7493896484375,-1.4590721685096397,321.25543212890625,0.42508239545234816,37.76728839399022,45.0439453125,42.188504776576785
1557947513955,-10.427016906738281,-4.073479156494141,-0.719703369140625,998.7493896484375,-2.6848040354747873,326.37060546875,0.4787599001959662,37.767285863852706,57.2119140625,39.12859475162355
1557947514024,-10.09500732421875,-2.901266784667969,-1.1344908142089845,998.7493896484375,-4.177089564889427,333.60821533203125,0.39557141914075855,37.767287772236045,57.2119140625,36.18048096712093
1557947514088,-9.311386871337891,-2.8084597778320313,-1.155596923828125,998.7493896484375,-4.073705176664556,348.2456970214844,0.23079405322593402,37.767285686712704,,24.712917110589387
1557947514154,-9.839338989257813,-4.089495849609375,-0.7065307617187501,998.7493896484375,-4.429848986889831,355.7601623535156,0.3197242992257929,37.76728656391771,0.0,26.464037262230697
1557947514221,-9.655820617675781,-3.6553985595703127,-0.4305047607421875,998.7493896484375,-3.7883029578023075,359.87664794921875,0.10434749843177364,37.76728494424311,0.0,25.670263661590603
1557947514288,-10.904074859619142,-4.194277954101563,0.3632945251464844,998.7493896484375,-3.7161531720464724,359.87664794921875,0.3983369081315291,37.76728651404043,0.0,30.89198366805149
1557947514354,-13.117671661376955,-4.8773075866699225,1.2534933471679688,998.7493896484375,-3.40127983469306,359.87664794921875,0.7175812280908059,40.029755587032724,0.0,29.49390006644913
1557947514420,-8.556656341552735,-0.9752220153808594,-0.41344024658203127,998.7493896484375,-3.3188176745010876,359.87664794921875,1.3935595254191009,40.02975610735811,0.0,27.41939077729199
1557947514488,-10.930719451904297,-3.789519653320313,0.21615051269531252,998.7493896484375,-4.073705176664556,358.85516357421875,0.5908112944147448,40.02975581412742,0.0,29.65201701025912
1557947514554,-10.739417266845704,-4.527784423828125,1.650018768310547,998.7493896484375,-3.9444221597195894,357.7596740722656,0.48434552979019424,40.02975309079667,0.0,34.69822015978163
1557947514620,-11.093730468750001,-4.578678588867188,1.3831237792968751,998.7493896484375,-4.11950886627768,356.51434326171875,0.13502747200076462,40.02975921424342,,39.7340497441006
1557947514688,-10.595416717529297,-5.006938018798828,1.8591339111328127,998.7283325195312,-4.751777081777194,351.4934387207031,0.2061872946859886,40.02975505675437,38.37890625,33.27154512409432
1557947514754,-10.188712463378907,-5.763614501953125,2.2049148559570315,998.7283325195312,-4.6813877538857955,347.2209777832031,0.28105401295438914,40.02975613859171,38.37890625,34.09764104266346
1557947514820,-9.921368408203126,-6.528523864746094,1.739981689453125,998.7283325195312,-4.4887426759434,338.58056640625,0.2793522984100458,40.02975851444197,,29.34498451243568
1557947514888,-9.438023529052735,-7.592062225341797,1.2796888732910157,998.7283325195312,-1.9341538242657623,327.98974609375,0.38358952717353156,40.02975474762807,0.0,33.11329952303793
1557947514954,-9.1920849609375,-8.270301818847656,0.044756927490234376,998.7283325195312,-1.4617451457577761,322.275634765625,0.4363426417538574,40.029757207768746,,30.3342375548695
1557947515020,-8.121810607910156,-4.486170959472656,0.3085084533691406,998.7283325195312,-1.360062162678474,322.275634765625,0.9304120837625904,40.02975411458683,,28.1888541459401
1557947515088,-9.930050354003907,-3.9739361572265626,-0.9410929870605469,998.7283325195312,-1.3571141942631852,326.30828857421875,0.6050522113206435,40.029755994205836,55.0830078125,35.676144427308444
1557947515154,-10.926827545166017,-4.702471160888672,0.061671752929687504,998.7283325195312,-1.8850987541561688,332.4540710449219,0.3958267502898524,40.02975603993463,34.5068359375,29.273703630390237
1557947515220,-10.148595886230469,-3.1879206848144532,0.09430389404296875,998.7283325195312,-2.764588301319539,342.14971923828125,0.3746292234834057,40.02975755323459,34.5068359375,31.535099893008372
1557947515288,-9.28399383544922,-2.2876927185058595,-1.0294093322753908,998.7283325195312,-3.864251811035606,347.14862060546875,0.47913639618836956,40.029755365279534,0.0,26.13841821876069
1557947515354,-8.681347045898438,-2.877765655517578,-1.5022760009765626,998.7283325195312,-4.2157241815369835,353.1650695800781,0.28951448017552717,40.02975681505667,0.0,24.683473304121573
1557947515420,-9.473050689697265,-4.830005950927735,-1.3762380981445312,998.7283325195312,-4.373265458523464,357.71282958984375,0.5259435428543415,40.029756154186266,0.0,25.301996982030822
1557947515488,-10.497220916748047,-4.374952239990234,-0.011675720214843751,998.7283325195312,-3.215724181536984,0.58953857421875,0.4466162374317881,40.029756873890776,0.0,25.185139398778876
1557947515572,-12.310999145507813,-4.438420257568359,0.9313632202148437,998.7283325195312,-2.3732654585234636,2.143338918685913,0.6164919599682055,40.02975773898466,,31.66430113843283
1557947515620,-11.175011444091798,-2.861150207519531,0.1478924560546875,998.7283325195312,-1.8642518110356063,2.143338918685913,0.4340449942465837,40.02975815125973,100.7275390625,28.48189116991399
1557947515688,-9.45314208984375,-1.8747015380859375,-0.31329849243164065,998.7113189697266,-2.597971745698158,0.47026392817497253,0.5989124002593618,40.02975971563474,0.0,31.17602691690084
1557947515754,-11.063643035888672,-3.732188873291016,0.6245013427734375,998.7113189697266,-3.9444221597195894,0.47026392817497253,0.5138320942711206,40.02975316773344,0.0,27.291647896927703
1557947515820,-11.522289276123047,-4.228856048583984,1.1108399963378908,998.7113189697266,-3.9444221597195894,0.47026392817497253,0.3133035263009463,40.029752923785026,0.0,34.63743721247059
1557947515888,-10.628348236083985,-4.657863922119141,1.8113832092285158,998.7113189697266,-4.614273558027259,0.47026392817497253,0.3301780688647257,40.02975812415221,,37.33197265106569
1557947515954,-9.64324676513672,-5.3458332824707036,1.7667759704589845,998.7113189697266,-4.614273558027259,355.7684631347656,0.36390058828970595,40.02975748470909,,36.35483746814912
1557947516022,-8.812773742675782,-5.773194580078125,1.507664794921875,998.7113189697266,-4.373265458523464,347.8556823730469,0.3273645601266158,40.029754964816455,29.6533203125,31.746411926604484
1557947516087,-8.821006622314453,-6.391408996582031,1.6628919982910157,998.7113189697266,-1.9968895796137252,336.0650634765625,0.20787377003321894,40.029757347159425,0.0,39.83851718991472
1557947516154,-10.371482391357423,-7.370073852539063,1.5414944458007813,998.7113189697266,-1.550143220607543,333.39691162109375,0.47331123114498963,40.029755467264565,,35.389505620143616
1557947516220,-10.78806610107422,-8.150999908447266,1.0542576599121094,998.7113189697266,-1.3600768547472646,332.3262939453125,0.35665410645176937,40.02975892721133,,37.21068301797159
1557947516288,-8.528365173339845,-4.674778747558594,0.4686753845214844,998.7113189697266,-0.9813680648737756,333.8265686035156,0.9699696251064178,40.02975773851331,60.0,45.44712803021174
1557947516354,-10.223140869140625,-3.8899607849121094,-1.1954141235351563,998.7113189697266,-0.9972331193321933,337.9189453125,0.6755763503403439,40.029755345036676,57.1533203125,33.70328007779511
1557947516420,-10.570418701171876,-3.7905674743652344,0.2878514099121094,998.7113189697266,-2.470421074068837,344.17242431640625,0.3263560797300517,40.029757612072046,57.1533203125,37.861122837198266
1557947516488,-10.220895538330078,-2.076032867431641,-0.5815406799316406,998.7113189697266,-4.193048743569087,350.0965881347656,0.486869281531747,40.0297565019379,39.6875,42.44202876082984
1557947516554,-9.02488265991211,-2.216291198730469,-0.8029302978515626,998.7113189697266,-3.82577766322097,357.289794921875,0.3343095039954201,40.029754739891395,57.578125,25.07855871695831
1557947516620,-8.21297103881836,-3.350183258056641,-0.9410929870605469,998.7113189697266,-3.9862423354142167,0.77618408203125,0.38933408618151066,40.02975408905117,0.0,24.84299839346786
1557947516688,-8.767268371582032,-4.640649719238281,-0.6604266357421875,998.6997985839844,-4.373265458523464,0.77618408203125,0.3983802076023592,40.02975401838082,0.0,23.242824552976927
1557947516754,-9.073082427978516,-4.135300598144531,-0.3936813354492188,998.6997985839844,-4.373265458523464,359.6711120605469,0.12689778188159126,40.02975627309252,0.0,38.26657791875869
1557947516820,-11.029364318847657,-3.9136116027832033,1.2014016723632812,998.6997985839844,-3.4887426759433997,359.6711120605469,0.6648642553966392,40.02975610023063,,35.138831856110926
1557947516888,-12.142599334716797,-4.364174652099609,0.6074368286132813,998.6997985839844,-3.266350254606952,356.4410400390625,0.42011450532762834,40.02975523063118,,29.185545305502735
1557947516954,-9.635313262939453,-2.270179138183594,-0.6004014587402344,998.6997985839844,-4.029311057306103,356.4410400390625,0.7893144545276554,40.02975628115318,0.0,30.047511555910013
1557947517021,-11.17126922607422,-3.114573211669922,0.5267546081542969,998.6997985839844,-3.9444221597195894,356.4410400390625,0.3357573109626618,40.02975655217885,0.0,30.008677215312268
1557947517088,-10.70813232421875,-3.543581085205078,1.2469070434570313,998.6997985839844,-3.9444221597195894,357.80426025390625,0.26961403359789216,40.029756586862874,,36.060587494103146
1557947517154,-10.570568389892578,-4.135300598144531,1.1557466125488283,998.6997985839844,-4.073705176664556,356.44110107421875,0.1895527496381183,40.02975776628193,,30.806264869218055
1557947517220,-9.917626190185548,-5.071304168701172,1.893113250732422,998.6997985839844,-4.318817674501087,353.1319274902344,0.3818465651614071,40.02975549975342,99.169921875,29.84077033902831
1557947517288,-8.888216857910157,-5.201982421875,1.81781982421875,998.6997985839844,-4.318817674501087,348.23828125,0.3194362787692306,40.029755508995244,0.0,34.6908529912312
1557947517354,-7.814948730468751,-5.045707397460938,1.6015196228027344,998.6997985839844,-3.7883029578023075,342.0994873046875,0.34843924603331633,40.029757589644724,0.0,30.740846890282437
1557947517420,-8.067623291015625,-5.58084457397461,1.2084370422363282,998.6997985839844,-3.40127983469306,336.7838439941406,0.18413014367963013,40.02975543701003,0.0,41.75627764367181
1557947517488,-11.371702423095703,-7.29567855834961,0.8449928283691407,998.6997985839844,-2.903780175222243,337.27978515625,0.9504545885853841,40.02975608333754,,37.00876708376904
1557947517554,-11.423644409179689,-7.122488708496094,0.05703140258789063,998.6997985839844,-3.0076159862067837,341.561767578125,0.32283257436184193,40.02975624358766,348.90625,34.409090820652175
1557947517620,-9.15181869506836,-4.439318389892579,-0.20507354736328126,998.6997985839844,-2.844886486168675,342.90289306640625,0.8392596642376641,40.029756183546844,348.90625,29.556877503135055
1557947517688,-12.362641754150392,-3.3891023254394534,-0.9949809265136719,998.6868286132812,-3.1910621273027147,350.4073486328125,0.8294257521775181,40.02975476639485,,36.65299499499897
1557947517754,-10.31190628051758,-2.3740631103515626,0.34218841552734375,998.6868286132812,-3.1668145810560375,356.6155090332031,0.5608857276633575,40.02975637609283,30.4541015625,27.795964912578242
1557947517820,-8.678353271484376,-1.9007473754882813,-0.5516029357910156,998.6868286132812,-3.82577766322097,359.05322265625,0.562460374730509,40.029754175576805,30.4541015625,30.88844562727004
1557947517887,-7.404502258300782,-2.27287353515625,-0.09729766845703125,998.6868286132812,-3.751777081777194,0.13641357421875,0.450011840240532,40.029756331270484,0.0,26.35483746814912
1557947517955,-7.95430892944336,-3.553909606933594,-0.2293231201171875,998.6868286132812,-4.11950886627768,0.13641357421875,0.33120517286550977,40.02975469037771,0.0,26.13841821876069
1557947518022,-8.9142626953125,-5.085823974609375,-0.22947280883789065,998.6868286132812,-4.429848986889831,358.54339599609375,0.526790972414489,40.029757513654914,0.0,24.885507165004444
1557947518088,-8.5693798828125,-4.846022644042969,-0.4543052673339844,998.6868286132812,-4.614273558027259,354.3329162597656,0.11625431772345038,40.0297555018917,0.0,27.084209001347126
1557947518154,-9.845176849365235,-4.294868774414063,-1.1981085205078126,998.6868286132812,-4.550143220607543,354.3329162597656,0.3764798655409406,40.02975504432426,0.0,36.467956887784695
1557947518220,-11.841275939941406,-4.976551208496094,-1.2040960693359375,998.6868286132812,-4.1668145810560375,355.5639343261719,0.5954560365663129,40.02975685001303,,30.216027160282422
1557947518288,-11.51570297241211,-5.2805690002441406,0.27393035888671874,998.6868286132812,-4.266350254606952,356.996826171875,0.3805540674336863,40.029755425129956,0.0,29.50364854376123
1557947518354,-8.692573699951172,-2.2873933410644534,0.34338592529296874,998.6868286132812,-4.1668145810560375,1.80364990234375,1.0034199047222392,43.49548738540538,0.0,30.216027160282422
1557947518420,-9.241182861328125,-3.031645660400391,0.10253677368164063,998.6868286132812,-3.7883029578023075,2.9620070457458496,0.10288732664649002,43.49547751836261,0.0,35.129510799724905
1557947518488,-8.993448028564453,-2.7057733154296875,0.966390380859375,998.6868286132812,-3.7161531720464724,6.281253337860107,0.21600031156537813,43.49547740634561,0.0,35.34280005205082
1557947518554,-9.316476287841798,-3.166066131591797,0.7900570678710938,998.6868286132812,-3.751777081777194,12.066947937011719,0.12603760006385378,43.49548041460735,0.0,31.225435240687546
1557947518620,-9.801168365478516,-4.352049865722656,1.6658857727050782,998.6868286132812,-3.864251811035606,12.066947937011719,0.41467960761327227,43.49548134391579,,28.055008581584
1557947518687,-9.588460693359375,-4.618944854736329,2.4872277832031253,998.660888671875,-4.2157241815369835,9.75338077545166,0.29983316398533527,43.49547946547299,43.9208984375,38.96140251442019
1557947518754,-8.562344512939454,-4.47434555053711,2.931054840087891,998.660888671875,-4.073705176664556,3.313913345336914,0.31493284827100293,43.49547274656585,55.25390625,38.15245591916563
1557947518820,-8.623417510986329,-5.3792138671875005,2.6659561157226563,998.660888671875,-3.5191163249869186,356.267822265625,0.23290318538234636,43.49547246282115,55.25390625,34.14304688128332
1557947518887,-10.51458480834961,-7.452103271484376,2.171983337402344,998.660888671875,-2.3188176745010876,351.5472106933594,0.7476213763315211,43.495472215716966,,30.74816440645175
1557947518954,-11.522139587402345,-6.9868707275390625,0.852626953125,998.660888671875,-2.903780175222243,355.4449768066406,0.5162651798969706,43.49547091601098,0.0,26.90196080028514
1557947519022,-8.477321319580078,-4.05521713256836,-0.811761932373047,998.660888671875,-3.751777081777194,6.199703693389893,1.1099633549687582,42.311523451998134,0.0,27.041505168397993
1557947519087,-8.043822784423828,-3.421135711669922,-2.3581961059570316,998.660888671875,-3.7161531720464724,13.6386137008667,0.6746094735772173,42.31152163658873,0.0,25.010592622177516
1557947519154,-9.020841064453126,-4.563709716796875,-1.2978012084960937,998.660888671875,-3.4887426759433997,22.890670776367188,0.2995004900415726,42.31150910922953,0.0,26.711728427150835
1557947519220,-9.346414031982423,-4.4810815429687505,-0.1878593444824219,998.660888671875,-3.581852080334881,27.759323120117188,0.34400620754190503,42.31150030238569,0.0,24.39332693830263
1557947519287,-8.651409301757813,-3.775448913574219,-1.197360076904297,998.660888671875,-4.073705176664556,29.931415557861328,0.3029391941875212,42.311495191650145,0.0,24.756711883244297
1557947519355,-8.182284851074218,-3.5296600341796878,-0.8752299499511719,998.660888671875,-3.5191163249869186,35.029964447021484,0.193144808095815,42.31149428960522,0.0,24.578818967339924
1557947519420,-7.926317138671876,-4.062851257324219,-0.6005511474609375,998.660888671875,-3.5191163249869186,38.858280181884766,0.1661286731268623,42.31148299943051,0.0,23.201462861110542
1557947519487,-7.391928405761719,-5.238955535888672,-0.9762698364257812,998.660888671875,-3.7161531720464724,41.69731903076172,0.36536707876565855,42.31148010279461,0.0,25.932860670204573
1557947519555,-7.571405181884766,-5.129682769775391,-1.6561560058593752,998.660888671875,-3.82577766322097,45.415828704833984,0.19589453808258792,42.11493494815774,0.0,31.17602691690084
1557947519620,-8.026009826660157,-5.645360412597657,-1.8949095153808595,998.660888671875,-3.903780175222243,47.29304885864258,0.21169850052596306,42.11493100998954,0.0,27.41151598851785
1557947519688,-8.62102249145508,-5.0918115234375,-0.918489990234375,998.6269378662109,-3.82577766322097,51.476654052734375,0.29890060608325725,42.11492242143379,0.0,25.877109650189112
1557947519754,-10.974727935791016,-5.361849975585938,0.43664199829101563,998.6269378662109,-3.581852080334881,57.728477478027344,0.7461447366625353,42.11492061180235,0.0,24.313637641589875
1557947519821,-9.432335357666016,-1.32444580078125,0.8373587036132812,998.6269378662109,-3.3188176745010876,63.49178695678711,1.0435053315294787,42.11491432422152,0.0,25.07855871695831
1557947519887,-9.086853790283204,-2.2185365295410158,1.0307565307617188,998.6269378662109,-3.0964252531646395,68.3779067993164,0.17548712574599112,42.11491267255065,0.0,27.323937598229687
1557947519954,-11.961326293945314,-4.423301696777344,2.2079086303710938,998.6269378662109,-2.6307616808158274,77.57530975341797,0.9297780934190345,42.11491747693875,0.0,23.873898263387293
1557947520023,-12.205318908691407,-2.817740478515625,5.474116516113281,998.6269378662109,-2.3732654585234636,80.7751235961914,0.9629594492807421,42.11491576541744,0.0,29.148718175400504
1557947520087,-11.90175018310547,-4.898713073730469,4.523892517089844,998.6269378662109,-3.614273558027259,83.4850845336914,0.4544914071478861,42.11491518209533,,31.82414652434554
1557947520154,-11.364068298339845,-6.470744018554687,1.7836907958984376,998.6269378662109,-3.751777081777194,75.30442810058594,0.8658856647201905,42.11491422972678,70.3662109375,38.62012051250217
1557947520220,-9.69309310913086,-6.611152038574219,1.2792398071289064,998.6269378662109,-3.5191163249869186,69.57989501953125,0.5655264250996177,42.11491555862503,70.3662109375,33.613500243522665
1557947520287,-8.668473815917968,-5.816155242919923,2.0541783142089844,998.6269378662109,-2.5191163249869186,66.14611053466797,0.4190833168982899,42.114913167416304,54.4873046875,27.101173651118163
1557947520354,-8.583001556396486,-5.530848541259766,2.1284239196777346,998.6269378662109,-2.30552085188763,71.6181869506836,0.16602133623740686,42.11491445687102,0.0,23.46352974450639
1557947520420,-8.259374542236328,-4.989424438476563,1.6328045654296877,998.6269378662109,-2.415493693912761,75.73020935058594,0.22594549192595267,42.11491474239323,0.0,26.665179805548807
1557947520487,-9.738897857666016,-5.512586517333984,-0.6267466735839844,998.6269378662109,-2.8069186359696547,86.41715240478516,0.6905827675742006,42.114914508650536,0.0,25.976951859255124
1557947520582,-7.037615203857422,-2.9132418823242188,-3.101101226806641,998.6269378662109,-3.0513373636361014,100.8900375366211,1.1529318470601495,40.45978966985717,0.0,22.7415784926368
1557947520620,-9.430239715576173,-4.692442016601563,-2.852168884277344,998.6269378662109,-3.1910621273027147,109.78797912597656,0.5503172037733284,40.459789342280985,0.0,25.171958979499745
1557947520687,-10.783425750732423,-5.473966827392578,-1.2723541259765625,998.5975646972656,-3.1195088662776804,116.7874755859375,0.6574960531840336,40.45978913813562,0.0,27.291647896927703
1557947520753,-10.031988372802735,-4.3806404113769535,-1.2865745544433593,998.5975646972656,-3.864251811035606,123.44683074951172,0.26620948357210394,40.45979002919429,0.0,27.62678563727436
1557947520820,-9.968670043945313,-4.245920562744141,-2.11480224609375,998.5975646972656,-3.345784722101357,132.51768493652344,0.21049409557592433,40.45978974687335,0.0,28.337843746564786
1557947520887,-9.640552368164062,-3.9748342895507816,-1.569935302734375,998.5975646972656,-3.345784722101357,149.15411376953125,0.1569115308657841,40.459790960387885,0.0,28.47572659142112
1557947520954,-8.579259338378908,-4.112697601318359,-2.043849792480469,998.5975646972656,-3.2408151624998145,156.5032958984375,0.3037981837443617,40.459789486612195,0.0,24.1161970596323
1557947521020,-8.533753967285156,-3.968697052001953,-2.2999671936035155,998.5975646972656,-2.3872046494813377,160.89321899414062,0.12567910831993698,40.459790295231095,0.0,20.863598306747484
1557947521087,-9.051527252197266,-4.849764862060547,-1.0397378540039064,998.5975646972656,-1.6224940648322272,166.23158264160156,0.35591677034750024,40.4597888226843,0.0,28.463371121298053
1557947521154,-10.608289947509766,-6.325096893310548,0.20133132934570314,998.5975646972656,-1.2989181170633826,173.3101348876953,0.7250741763675539,40.45978903834748,0.0,28.84795363948981
1557947521220,-11.390862579345704,-5.941145324707032,4.182901611328125,998.5975646972656,-1.3298334702521952,177.3883514404297,1.13182022103885,40.459792191944786,0.0,34.12124406173317
1557947521288,-8.415200500488282,-2.0613633728027345,3.18298095703125,998.5975646972656,-2.2922913799909,180.95120239257812,1.1749424711288472,40.45979089359372,,25.877109650189112
1557947521354,-10.656489715576173,-3.790118408203125,2.2541624450683595,998.5975646972656,-3.1429678391016695,182.27711486816406,0.49214545078465766,40.45979102190184,0.0,26.910814921229687
1557947521420,-10.528206481933594,-4.2583447265625,2.077529754638672,998.5975646972656,-3.3732654585234636,182.27711486816406,0.20416298430853055,40.45979057426124,0.0,37.953237643293136
1557947521487,-10.499166870117188,-5.145549774169922,1.6592994689941407,998.5975646972656,-3.581852080334881,184.00794982910156,0.2934033759226743,40.459789634372896,,28.94869656745253
1557947521554,-9.588909759521485,-5.298980712890625,1.945803680419922,998.5975646972656,-3.9862423354142167,178.8983917236328,0.2512119489252083,40.459788799982974,0.0,31.061908972634154
1557947521620,-9.524094543457032,-5.406157836914063,2.282154235839844,998.5975646972656,-3.9444221597195894,177.4385986328125,0.12985624758688433,40.459792284978924,0.0,33.06853748693009
1557947521688,-9.86837860107422,-5.541925506591797,2.258653106689453,998.5726928710938,-3.1195088662776804,171.12013244628906,0.08454960265196781,40.45979103077631,0.0,24.913616938342727
1557947521754,-10.142608337402343,-7.0944969177246096,2.1794677734375,998.5726928710938,-1.6224940648322272,168.65187072753906,0.4092656712656503,40.459790176702064,0.0,30.111473607757976
1557947521820,-10.638826446533203,-7.954009552001954,0.6629713439941407,998.5726928710938,-1.2014437153288733,168.65187072753906,0.5166804760034325,40.45979002111255,0.0,39.582293141883824
1557947521887,-7.746241607666016,-6.207441558837891,-0.1335223388671875,998.5726928710938,-1.0771221147690166,171.08450317382812,0.8286937032656517,40.45979111223989,,30.461047872460387
1557947521954,-8.87489456176758,-4.124523010253906,-1.5368540954589844,998.5726928710938,-1.1419399124170082,173.24742126464844,0.7515338839872898,40.4597892804098,71.3818359375,40.96388546687366
1557947522021,-10.086774444580078,-4.261039123535157,-1.767374725341797,998.5726928710938,-1.8215306921207848,177.8614959716797,0.3874681218013626,40.45978974084905,72.001953125,37.44840396785379
1557947522087,-10.400522003173828,-2.409239959716797,-0.7750881958007813,998.5726928710938,-3.0610199170334407,186.99456787109375,0.5580876278441211,40.45979087188049,72.001953125,25.599066250361126
1557947522154,-8.676557006835939,-2.3376887512207034,-0.9545649719238282,998.5726928710938,-3.751777081777194,192.1031951904297,0.41545003841577116,40.45978996452066,52.314453125,33.94626764272209
1557947522221,-8.157137145996094,-2.994971923828125,-1.3898597717285157,998.5726928710938,-3.40127983469306,197.60076904296875,0.28266440901195516,40.459789806398675,,21.986570869544227
1557947522288,-8.731043701171876,-4.006418609619141,-1.1819421386718751,998.5726928710938,-3.4298489868898314,202.8739013671875,0.2990509167348483,40.45978961058834,0.0,20.0
1557947522354,-9.981692962646484,-4.125570831298829,-0.32257919311523436,998.5726928710938,-2.733855173779931,202.8739013671875,0.41337938293788373,40.459789831337474,0.0,21.238516409670858
1557947522420,-10.86425765991211,-4.060306549072266,-0.0007484436035156251,998.5726928710938,-2.0964252531646395,202.8739013671875,0.33324980503528506,40.459790730196374,0.0,32.90479813330673
1557947522487,-13.355976104736328,-5.983357543945313,0.5062472534179687,998.5726928710938,-1.9341538242657623,201.1370086669922,0.8646896763926082,40.459792804050366,,27.839035792727348
1557947522554,-9.131610717773437,-2.308798828125,0.14534774780273438,998.5726928710938,-2.30552085188763,198.8983612060547,1.1899170361851512,40.45979048712918,,25.58708570533166
1557947522620,-9.341324615478516,-1.9570303344726563,-1.1035052490234376,998.5726928710938,-2.844886486168675,198.8983612060547,0.46502425045630197,40.45979019698696,0.0,26.283889300503116
1557947522688,-10.205926666259765,-3.8384678649902346,0.9553134155273438,998.5472106933594,-3.4887426759433997,196.50509643554688,0.6140728407733018,40.45979268812012,0.0,25.05149978319906
1557947522754,-10.025402069091797,-3.8300852966308594,0.8529263305664063,998.5472106933594,-3.751777081777194,196.50509643554688,0.1279373456054982,40.45978953665107,0.0,30.88844562727004
1557947522820,-10.076595611572266,-4.369563446044922,1.4181509399414063,998.5472106933594,-3.9862423354142167,196.50509643554688,0.2275077280213144,40.459789999337325,0.0,36.032526619816466
1557947522888,-9.622589721679688,-5.141508178710938,1.9089802551269532,998.5472106933594,-4.1668145810560375,191.60198974609375,0.3049929506306476,40.45979045077066,,28.84795363948981
1557947522957,-9.238338775634766,-5.631439361572266,1.8134788513183595,998.5472106933594,-4.029311057306103,191.60198974609375,0.21960249459549241,40.459791271157805,0.0,24.28134794028789
1557947523024,-9.80086898803711,-6.854396209716797,1.572030944824219,998.5472106933594,-3.1195088662776804,182.99203491210938,0.3719221983300967,40.45979061621268,0.0,32.355284469075485
1557947523088,-10.904074859619142,-7.901468811035157,1.043031005859375,998.5472106933594,-1.844886486168675,178.42843627929688,0.4852778715287731,40.459791266697,0.0,28.992731873176037
1557947523154,-8.976233825683595,-6.969806213378907,0.664617919921875,998.5472106933594,-1.5545693259414766,178.42843627929688,0.4509422609005291,40.45979172106827,0.0,28.14913181275074
1557947523220,-8.189918975830079,-4.604874114990235,-0.34982254028320314,998.5472106933594,-1.4838651938794536,180.53781127929688,0.7515355035959101,40.45979171227899,0.0,32.01670179646582
1557947523288,-10.01402572631836,-4.5797264099121096,-0.5135820007324219,998.5472106933594,-1.8410226191589074,183.9784698486328,0.42992699868909573,40.4597883262645,0.0,29.633155113861115
1557947523354,-9.461674346923829,-3.907324676513672,0.0437091064453125,998.5472106933594,-2.6299740299530527,189.06655883789062,0.24046959875631096,40.45978935047649,0.0,27.05007959333336
1557947523420,-9.1585546875,-2.8985723876953124,-0.9190887451171875,998.5472106933594,-3.580125335615413,191.4678192138672,0.38140477224182195,40.45979234064905,0.0,33.21805483857539
1557947523488,-8.46160400390625,-2.485581207275391,-1.0410850524902344,998.5472106933594,-3.4298489868898314,197.9235076904297,0.2784505257701151,40.4597915102888,0.0,25.105450102066122
1557947523554,-9.136849822998048,-3.1452593994140625,-0.96998291015625,998.5472106933594,-3.1429678391016695,202.454345703125,0.16968569898776284,40.45979106136547,0.0,21.903316981702915
1557947523620,-9.772128753662109,-4.676275634765625,-0.6059399414062501,998.5472106933594,-3.266350254606952,203.49476623535156,0.46277570758607084,40.45979191454649,0.0,22.624510897304294
1557947523688,-9.87945556640625,-3.948040008544922,-0.05553451538085938,998.5221862792969,-3.1910621273027147,203.49476623535156,0.193261372070741,40.45979281744105,0.0,33.24488233307656
1557947523754,-11.893367614746094,-5.324427795410156,1.0451266479492187,998.5221862792969,-2.8069186359696547,204.50265502929688,0.6906842971603444,40.45979224165494,0.0,27.18501688867274
1557947523820,-9.749525756835938,-2.3438259887695314,-0.2935395812988281,998.5221862792969,-2.844886486168675,204.50265502929688,0.819046899851703,40.459792471611436,0.0,24.03120521175818
1557947523888,-10.17778518676758,-2.3778053283691407,-0.5354365539550782,998.5221862792969,-3.029311057306103,202.55528259277344,0.2568836967241527,40.45979273355454,0.0,33.03412070596742
1557947523954,-10.198741607666015,-3.588637390136719,0.9351054382324219,998.5221862792969,-3.345784722101357,198.3648223876953,0.46034900129248163,40.45978752820019,0.0,25.390760987927766
1557947524022,-10.220745849609376,-4.1182360839843755,0.9202862548828126,998.5221862792969,-3.2923454631398963,195.0119171142578,0.22579676954173752,40.459791783397975,0.0,34.20120848085703
1557947524088,-9.808802490234376,-4.515210571289063,1.117276611328125,998.5221862792969,-3.614273558027259,190.57806396484375,0.1945620977326907,40.45979038900383,,35.73335840066068
1557947524155,-9.319619750976562,-5.078938293457031,1.6926800537109377,998.5221862792969,-3.751777081777194,186.5411834716797,0.28226765164883544,40.4597924154895,34.67215401785714,31.73186268412274
1557947524220,-8.732390899658203,-5.567222900390625,1.7624349975585938,998.5221862792969,-3.614273558027259,178.70343017578125,0.2546999451272821,40.45978967955747,34.67215401785714,27.09269960975831
1557947524288,-9.114097137451173,-6.4113175964355476,2.029479675292969,998.5221862792969,-2.733855173779931,173.1721649169922,0.27002584800951485,40.4597885889135,0.0,40.204441553665745
1557947524354,-11.072025604248047,-7.942034454345704,1.2292437744140625,998.5221862792969,-2.211242047116467,171.9176025390625,0.6949609266035502,40.459790516680215,,30.59941888061955
1557947524420,-9.917177124023437,-6.318959655761719,0.9331594848632813,998.5221862792969,-2.1406871280122717,175.35348510742188,0.3721537645851423,40.45979040278784,0.0,27.951845896824242
1557947524488,-8.359665985107423,-4.454436950683594,-0.9345066833496094,998.5221862792969,-2.1832813986036954,179.90719604492188,0.8331808405937137,40.45978922155151,0.0,31.338581252033343
1557947524554,-10.13377670288086,-4.3876757812500005,-0.54366943359375,998.5221862792969,-2.380354290378809,179.90719604492188,0.36909420481682786,40.459788910518654,0.0,38.1888541459401
1557947524620,-9.335786132812501,-4.454436950683594,0.5631289672851563,998.5221862792969,-2.5796630986022153,184.0453338623047,0.29622768135681665,40.459791205235895,,42.46793918775155
1557947524688,-8.850345611572266,-3.6025584411621097,0.4098477172851563,998.4996032714844,-3.334550600765684,188.0325469970703,0.26663489460398626,40.459791657931355,,33.07282047033346
1557947524755,-8.5214794921875,-2.5999433898925783,-0.8422984313964844,998.4996032714844,-3.1910621273027147,193.96656799316406,0.44822969742038615,40.459790132237515,48.115234375,23.838153659804313
1557947524820,-8.713679809570312,-3.313509521484375,-0.8887019348144531,998.4996032714844,-3.345784722101357,202.05374145507812,0.13599410891365618,40.45979219772697,0.0,24.45604203273598
1557947524888,-9.312584381103516,-5.272336120605469,-1.0792556762695313,998.4996032714844,-3.1429678391016695,201.0401153564453,0.5423132463154942,40.459789541314784,0.0,24.099331233312945
1557947524955,-9.504934387207031,-5.303171997070312,-0.9349557495117188,998.4996032714844,-2.7883029578023075,201.0401153564453,0.16276775720901274,40.45979078906531,0.0,46.30976752904219
1557947525025,-11.553274841308594,-6.266119537353516,0.5373825073242188,998.4996032714844,-2.1668145810560375,201.0401153564453,0.7066690338685823,40.45979132026912,,35.29173603261723
1557947525088,-10.365494842529298,-4.159250793457032,0.52929931640625,998.4996032714844,-2.073705176664556,201.0401153564453,0.49478373342512877,40.45979170416391,223.72179303850447,32.42292904982931
1557947525154,-8.71832015991211,-2.2436842346191406,0.3555107116699219,998.4996032714844,-2.2033404570811514,201.0401153564453,0.7466265765798545,40.459789237158574,223.72179303850447,31.25806458139527
1557947525220,-9.648036804199219,-3.667822723388672,0.9249266052246095,998.4996032714844,-3.1195088662776804,198.34375,0.27459875354489977,31.136261498052473,0.0,30.927206446840994
1557947525289,-9.68111801147461,-3.793561248779297,0.7514373779296876,998.4996032714844,-3.2923454631398963,196.6720428466797,0.09336522401431012,31.13626102514918,,35.770319856260315
1557947525354,-9.505982208251954,-4.265978851318359,0.9464817810058594,998.4996032714844,-2.923958057159874,196.6720428466797,0.15079247078707703,31.136258711662258,71.93359375,33.10055737750891
1557947525420,-9.025331726074219,-5.224735107421875,1.051263885498047,998.4996032714844,-2.9444221597195894,196.6720428466797,0.3055460717790698,31.13625287994184,71.93359375,34.79431337197737
1557947525488,-8.016729125976562,-5.179379425048828,1.485959930419922,998.4996032714844,-3.345784722101357,193.9093780517578,0.31317971062469246,31.13624872438643,87.6220703125,29.355072658247128
1557947525578,-8.402476959228515,-5.174140319824219,2.028431854248047,998.4996032714844,-3.40127983469306,193.9093780517578,0.16759090539943322,31.136248608176377,0.0,27.701152947871016
1557947525621,-8.684340820312501,-5.941145324707032,1.6543597412109377,998.4996032714844,-3.1910621273027147,192.5823516845703,0.17611318065029016,31.136246873528414,0.0,30.29789470831856
1557947525688,-11.532318420410157,-7.009773101806641,1.7221687316894532,998.4775543212891,-2.9444221597195894,199.88133239746094,0.7226786138298709,31.13624668828671,0.0,28.573324964312686
1557947525754,-11.82466049194336,-6.9148704528808596,0.9861492919921876,998.4775543212891,-2.9444221597195894,204.80516052246094,0.3916561662162315,31.13624723587296,0.0,27.82472624166286
1557947525820,-9.369615783691406,-4.577032012939453,-0.023351440429687502,998.4775543212891,-2.9444221597195894,208.03414916992188,0.8282364535973994,31.13624738677739,0.0,26.848453616444125
1557947525888,-8.73613311767578,-3.130440216064453,-1.5634986877441408,998.4775543212891,-2.844886486168675,212.57762145996094,0.7402912752545844,31.13624742881734,0.0,27.48962861256161
1557947525954,-8.78298568725586,-3.169658660888672,-0.7240443420410156,998.4775543212891,-2.4737923344774284,218.7341766357422,0.16167526537306753,31.13624905379429,0.0,25.888317255942074
1557947526021,-8.683592376708985,-3.5293606567382816,-0.5668711853027344,998.4775543212891,-2.769924428487453,220.56930541992188,0.09644331902914588,31.136246714424928,0.0,26.13841821876069
1557947526088,-8.007448425292969,-2.9171337890625,-0.8577163696289063,998.4775543212891,-3.82577766322097,222.44921875,0.233019183106084,31.136247573072332,0.0,33.27358934386331
1557947526155,-7.23819808959961,-3.825594635009766,-0.8060737609863282,998.4775543212891,-3.2923454631398963,224.4065399169922,0.3054941354537647,31.13624897296278,0.0,27.573960287930245
1557947526220,-7.081923065185547,-4.693789215087891,-1.0080038452148439,998.4775543212891,-3.2408151624998145,224.4065399169922,0.2873867847955181,31.136247648825503,0.0,26.45422269349092
1557947526288,-7.417674865722657,-5.539680175781251,-0.4824467468261719,998.4775543212891,-3.266350254606952,221.33297729492188,0.3078454243644761,31.136248383987425,0.0,25.61101383649056
1557947526354,-7.986791381835938,-5.407804412841797,-0.9755213928222657,998.4775543212891,-3.345784722101357,220.24093627929688,0.18648533766210582,31.13624675154776,0.0,27.730546933642625
1557947526420,-8.968150634765625,-4.9811915588378906,-0.5935157775878906,998.4775543212891,-3.40127983469306,221.46377563476562,0.30938609471010714,31.136246890470726,0.0,28.50033257689769
1557947526488,-9.615853729248048,-4.116589508056641,-0.7014413452148438,998.4775543212891,-3.345784722101357,225.91720581054688,0.313380982154827,31.136245374951525,0.0,27.435097647284298
1557947526554,-11.50612289428711,-4.274810485839844,-0.18516494750976564,998.4775543212891,-2.40127983469306,230.26527404785156,0.547550444255567,31.13624744848592,0.0,26.884198220027105
1557947526621,-9.370214538574219,-1.8062937927246094,0.24938140869140626,998.4775543212891,-1.7249770224334782,234.48236083984375,0.7584608731673711,31.1362473394806,0.0,25.943925503754265
1557947526688,-9.41811492919922,-2.694546661376953,0.22408401489257815,998.4474945068359,-1.5539044541523528,234.48236083984375,0.11340380072517195,31.136247145277594,0.0,24.683473304121573
1557947526755,-11.157048797607423,-3.772006072998047,0.22962249755859376,998.4474945068359,-2.6948467933945217,233.3656768798828,0.5019283278014411,31.136245843272928,,30.895518828864542
1557947526820,-11.9798876953125,-4.124672698974609,1.1618838500976563,998.4474945068359,-3.148249043763742,231.88824462890625,0.41974797888445187,31.136246022066032,,35.759956202032676
1557947526888,-11.427835693359375,-4.4087818908691405,2.103725280761719,998.4474945068359,-2.7161531720464724,226.0431365966797,0.32029652419365817,31.136248705382076,44.0380859375,29.537596917332287
1557947526954,-10.659932556152345,-4.984484710693359,2.215542755126953,998.4474945068359,-2.4737923344774284,221.21142578125,0.28756446677256253,31.13624573703549,0.0,32.21414237842338
1557947527020,-9.957293701171876,-5.488486633300782,2.492017822265625,998.4474945068359,-2.5345463655565243,212.08169555664062,0.29865888536055973,31.136246333233448,0.0,31.354506993455136
1557947527088,-8.919052734375,-6.242468719482422,2.5765919494628906,998.4474945068359,-1.0568968889780022,198.9335174560547,0.39415948468579143,31.13624670452846,0.0,32.07095540419218
1557947527155,-7.6158627319335945,-5.685177612304688,2.3558010864257812,998.4474945068359,-0.18083305767158198,189.85211181640625,0.40881892832448025,31.136246699880424,0.0,27.75974331129369
1557947527220,-8.760233001708984,-6.498735809326172,1.2566368103027343,998.4474945068359,0.13737002223212694,191.49270629882812,0.37126039155469287,31.136245790999784,0.0,25.45307116465824
1557947527289,-6.669830017089844,-2.5902136230468753,-1.2091854858398439,998.4474945068359,0.09478786928462415,194.95770263671875,1.2585214269522502,31.13624834418908,0.0,24.983105537896005
1557947527354,-8.789871368408203,-2.651136932373047,-2.9141400146484377,998.4474945068359,-0.3669163925021074,211.39674377441406,0.7582986928475759,31.13624608026986,0.0,25.910646070264992
1557947527420,-10.787317657470703,-4.7856980895996095,-1.4922468566894531,998.4474945068359,-1.1741441228545269,221.34371948242188,0.7962809265149645,31.136247326311835,0.0,29.415114326344032
1557947527488,-10.674152984619141,-3.985162811279297,-2.4640260314941407,998.4474945068359,-2.56528545194963,231.75326538085938,0.24098376526244408,31.13624632936701,0.0,27.85329835010767
1557947527556,-9.916728057861329,-3.7649707031250004,-3.3653018188476564,998.4474945068359,-2.7847192564257734,242.326904296875,0.31302925824298505,31.136246919679856,0.0,29.395192526186186
1557947527620,-9.69698501586914,-4.11224853515625,-2.5209077453613284,998.4474945068359,-2.6374741324638036,259.20635986328125,0.1762559867863089,31.13624752129719,0.0,29.339931638312425
1557947527688,-9.070986785888673,-3.9962397766113282,-2.203268280029297,998.4086608886719,-2.503242245638515,267.20965576171875,0.2127189149824786,31.136246537732497,0.0,33.12600439261259
1557947527754,-8.483308868408203,-4.252506866455079,-1.204545135498047,998.4086608886719,-1.490793415508162,275.4548645019531,0.34314545563084703,31.13624815193891,0.0,30.38620161949703
1557947527820,-9.00332748413086,-4.658013610839844,-0.583187255859375,998.4086608886719,-1.0387965313476488,279.34442138671875,0.26619948993150055,31.136247779855267,0.0,27.573960287930245
1557947527888,-11.490555267333985,-5.446573791503907,0.6625222778320313,998.4086608886719,-0.7366837363917029,284.8614501953125,0.7739011201122096,31.136246632583006,0.0,25.2244423350632
1557947527954,-9.73380844116211,-2.7906468200683596,1.281185760498047,998.4086608886719,-0.294378438915223,290.82537841796875,0.7122944698924285,31.136248907114776,0.0,26.665179805548807
1557947528022,-8.384514312744141,-2.368824005126953,0.5111869812011719,998.4086608886719,0.12130400422584303,297.9578857421875,0.4989587464061941,31.136247990534976,0.0,26.812412373755873
1557947528088,-11.54055130004883,-4.6677433776855475,1.5581098937988282,998.4086608886719,0.006901999548648817,304.89544677734375,0.8861678210447422,31.136248338535264,0.0,27.331972651065698
1557947528154,-11.716285858154297,-4.190685424804688,2.229164428710938,998.4086608886719,-0.5830263484414272,311.8567199707031,0.3118501857109699,31.13624611184153,0.0,25.599066250361126
1557947528220,-11.881841583251953,-4.165837097167969,2.6411077880859377,998.4086608886719,-2.20117819026247,320.7908935546875,0.1856384524599527,31.13624740706507,0.0,28.155777483242673
1557947528288,-11.327693939208984,-4.834197235107422,2.8885432434082032,998.4086608886719,-2.732770032667554,322.4324645996094,0.22598484209662018,31.13624662949298,0.0,34.274861090957856
1557947528354,-11.344608764648438,-5.336253204345703,3.1057415771484376,998.4086608886719,-2.93938537792901,320.58251953125,0.18668416334107588,31.136248331508295,0.0,29.29929560084588
1557947528420,-9.912237396240235,-5.466931457519531,3.041375427246094,998.4086608886719,-3.0964252531646395,314.991943359375,0.3717514726612689,31.136247022833935,0.0,21.64352855784437
1557947528487,-10.061027984619141,-6.281088409423829,2.265838165283203,998.4086608886719,-3.1910621273027147,304.6449890136719,0.29911373365369937,31.13624667522727,0.0,28.208579894397
1557947528554,-10.657387847900392,-7.6633140563964846,0.6210585021972657,998.4086608886719,-2.503849568333608,295.90570068359375,0.6247739221542821,31.136245567265313,0.0,32.42789809478677
1557947528621,-10.428663482666016,-8.800948333740235,-0.8339158630371094,998.4086608886719,-1.6558526617786582,295.90570068359375,0.6144752734506121,31.136246434238217,0.0,28.536982117761745
1557947528687,-8.587492218017578,-5.574407958984375,-3.898642730712891,998.3740997314453,-1.515340388156385,300.82867431640625,1.1495214027216145,31.136245990701347,0.0,28.42609239610562
1557947528755,-9.067244567871095,-5.342839508056641,-4.285588073730469,998.3740997314453,-2.1412794889489,312.783203125,0.4689498375129123,31.1362468027135,0.0,30.674428427763804
1557947528820,-8.787176971435548,-5.892795867919922,-3.4950819396972657,998.3740997314453,-3.266350254606952,318.72686767578125,0.14616885207230268,31.136246893454857,0.0,30.83144143143052
1557947528888,-9.430838470458985,-3.3798216247558597,-0.41119491577148437,998.3740997314453,-3.4298489868898314,323.9776611328125,1.019868426667956,31.136247416883702,,33.14077991779213
1557947528955,-11.293564910888673,-1.2005035400390625,-0.16001724243164064,998.3740997314453,-3.550143220607543,327.1851806640625,0.8993713494702525,31.136247849233715,,25.490032620257878
1557947529022,-10.618768157958986,0.004640350341796875,0.6915618896484376,998.3740997314453,-2.6986657453176313,331.5247497558594,0.5532092347169758,31.13624610652201,0.0,28.692317197309762
1557947529088,-9.99247055053711,-2.292183380126953,-0.047900390625000004,998.3740997314453,-2.6813877538857955,329.94268798828125,0.4985162739722732,31.13624603799036,0.0,25.563025007672874
1557947529154,-8.969647521972657,-2.1571641540527344,-0.07424560546875,998.3740997314453,-2.82577766322097,322.1563720703125,0.31016075737839455,31.1362469663883,0.0,25.327543789924974
1557947529220,-11.03430404663086,-4.757706298828126,3.873794403076172,998.3740997314453,-3.029311057306103,316.0052490234375,1.265332384780167,31.136247788928046,0.0,29.014583213961124
1557947529288,-12.91244842529297,-3.3260833740234377,2.7678941345214847,998.3740997314453,-3.1668145810560375,314.5450744628906,0.6112583280258189,31.136245815169087,0.0,29.566485792052035
1557947529354,-9.98049545288086,-2.3138882446289064,2.7830126953125003,998.3740997314453,-3.751777081777194,318.27374267578125,0.660408019654274,31.136247179717373,0.0,25.95496221825574
1557947529420,-6.942263488769532,-4.850213928222656,1.2588821411132813,998.3740997314453,-5.1668145810560375,322.9917297363281,1.1314703358375044,31.136247902542063,0.0,29.395192526186186
1557947529487,-5.2488349914550785,-2.4043002319335938,2.4436683654785156,998.3740997314453,-4.373265458523464,325.276611328125,0.8278357784012276,31.136248665862674,0.0,28.241258339165487
1557947529555,-5.73412582397461,-0.552052001953125,2.016756134033203,998.3740997314453,-3.7161531720464724,326.57568359375,0.5851960103659424,31.136247135873408,0.0,27.671558660821805
1557947529620,-6.954238586425782,0.6309379577636719,1.3498928833007813,998.3740997314453,-3.40127983469306,326.57568359375,0.5604065719060367,31.13624710431049,0.0,28.1888541459401
1557947529688,-9.34626434326172,0.08951385498046875,6.238726501464844,998.3560180664062,-3.9444221597195894,329.7117919921875,1.3554017193762227,31.13624815506431,0.0,28.767949762007007
1557947529754,-9.747879180908203,0.004041595458984375,2.242636413574219,998.3560180664062,-4.266350254606952,328.56268310546875,0.754631980489521,31.136246645817796,0.0,28.808135922807914
1557947529820,-12.69644760131836,-1.73159912109375,3.9808218383789065,998.3560180664062,-5.073705176664556,336.96148681640625,0.9116997452788943,29.030789091143635,0.0,28.959747323590644
1557947529888,-12.83490966796875,-3.9787261962890628,4.122726745605469,998.3560180664062,-5.4887426759434,341.68414306640625,0.7880758920606802,29.03078954710991,0.0,29.283958522567136
1557947529954,-10.107281799316407,-0.7770341491699219,1.7354910278320312,998.3560180664062,-6.266350254606952,343.63897705078125,1.0450698918609016,29.03079223626143,0.0,29.712758487381056
1557947530024,-6.0324554443359375,-4.486620025634766,-1.024768981933594,998.3560180664062,-7.073705176664556,343.63897705078125,1.6346660658478323,32.76062894188376,0.0,30.913151596972227
1557947530088,-10.529104614257813,-1.3778846740722657,-0.6150709533691406,998.3560180664062,-7.073705176664556,345.146240234375,1.020654111411729,32.76062863779336,0.0,32.73695587930092
1557947530154,-10.497969360351563,0.3387455749511719,0.055384826660156254,998.3560180664062,-5.4887426759434,346.4962158203125,0.6249728012511073,32.76062895252678,0.0,26.35483746814912
1557947530221,-7.260501708984376,-0.2998265075683594,0.0383203125,998.3560180664062,-5.4887426759434,344.2935485839844,0.7602026741821443,32.760628988934144,0.0,26.273658565927324
1557947530288,-8.938212890625,-2.2841001892089845,-1.4100677490234377,998.3560180664062,-5.4887426759434,339.5666198730469,0.6544459888638536,32.76062898464498,0.0,26.55138434811382
1557947530354,-10.834768981933594,-0.25222549438476566,-0.8132588195800782,998.3560180664062,-5.1668145810560375,337.28802490234375,0.6579210171805312,32.7606282593552,0.0,29.444826721501688
1557947530421,-13.316009216308595,0.4037104797363281,-0.6713539123535157,998.3560180664062,-4.614273558027259,335.259033203125,0.7983233671496069,32.76062977457737,0.0,38.26009977791101
1557947530487,-14.934293975830078,-2.073937225341797,1.5319143676757814,998.3560180664062,-3.9444221597195894,336.0209655761719,0.9881533935274388,40.51991425332654,,34.43575879750257
1557947530579,-10.693013763427736,0.08322692871093751,0.3492237854003906,998.3560180664062,-4.4887426759434,342.43731689453125,1.0081828412233946,40.51990958491592,,32.530955858490316
1557947530620,-9.200317840576172,1.517095184326172,1.1773017883300783,998.3560180664062,-5.073705176664556,346.9879455566406,0.7746728235695459,40.51990776154859,91.58760288783482,32.45265839457461
1557947530688,-2.978206787109375,3.6018099975585938,3.113675079345703,998.3530426025391,-2.769924428487453,346.02899169921875,1.894992143264672,40.51990728971686,,32.99725153975637
1557947530754,-5.420228576660157,4.205803985595703,5.80597640991211,998.3530426025391,-2.82577766322097,347.5754089355469,0.8816795166743334,40.519906098472404,131.65033249627976,30.842186867392385
1557947530821,-0.07080276489257813,1.5236814880371095,-1.7019607543945314,998.3530426025391,-2.9444221597195894,346.1655578613281,2.1971966199949433,40.519899126666594,131.65033249627976,36.25415352154408
1557947530888,-7.979756011962891,1.16158447265625,2.064357147216797,998.3530426025391,-4.751777081777194,349.1387939453125,1.804243259318809,40.5198919646291,,32.12720154417842
1557947530954,-15.864160308837892,2.7653494262695313,3.6375856018066406,998.3530426025391,-4.318817674501087,354.62286376953125,2.441669363514827,40.519885575007265,274.82706705729163,39.15769065983684
1557947531022,-8.206384735107422,-4.8367419433593755,3.4256263732910157,998.3530426025391,-3.82577766322097,357.515380859375,1.8898203711039934,40.51988250078701,,40.4789762351441
1557947531088,-7.094796295166016,-3.5343003845214844,2.2231768798828124,998.3530426025391,-2.733855173779931,5.239944934844971,0.6694695132624029,40.519875741288686,,31.2515582958053
1557947531154,-9.845326538085938,-3.0217662048339844,5.040019226074219,998.3530426025391,-3.9862423354142167,11.136164665222168,0.8393762932889598,40.51987181277819,200.55517578125,31.152775913959015
1557947531220,-8.41654769897461,-6.125412139892578,1.5109579467773437,998.3530426025391,-6.4887426759434,16.121864318847656,1.3431577820672653,40.519868756578646,232.81534830729169,51.0176768870149
1557947531289,-25.558450927734377,6.635700988769532,4.790937194824219,998.3530426025391,-7.073705176664556,36.60832214355469,5.986392275047908,40.51986417675489,232.81534830729169,30.59941888061955
1557947531354,-11.566297760009766,-2.898722076416016,-1.80823974609375,998.3530426025391,-7.073705176664556,22.96074104309082,3.47810737802179,40.519860717205376,,36.07562243183588
1557947531420,-6.765331420898438,-2.345472564697266,1.3695021057128907,998.3530426025391,-6.266350254606952,14.429469108581543,1.9009655919239647,40.51986018823402,176.52384440104169,33.422252293607905
1557947531488,-0.5751040649414063,-2.5640180969238284,-1.0937754821777343,998.3530426025391,-5.751777081777194,6.610323905944824,2.071710357426261,40.51985996195047,,46.03674732680942
1557947531554,-3.093916168212891,-3.0385313415527344,2.2767654418945313,998.3530426025391,-7.073705176664556,3.5349788665771484,0.7426647200138534,40.51986353627702,,39.04985881099363
1557947531620,-12.467124481201173,-2.3233186340332033,-2.3608905029296876,998.3530426025391,-7.073705176664556,350.6998596191406,2.5738270878983838,40.51986283941879,96.80826822916666,49.563173333633735
1557947531688,-21.08754821777344,0.5316943359375,-4.716392211914063,998.3490753173828,-6.266350254606952,12.935089111328125,2.9687283511923956,40.51985954069383,,44.88212173298759
1557947531754,-9.09433822631836,-1.456022186279297,0.010927276611328125,998.3490753173828,-7.073705176664556,14.297856330871582,2.5267074398458544,40.51986117299379,,42.98700282631671
1557947531822,-10.064171447753907,-0.06511459350585938,-3.407064971923828,998.3490753173828,-7.073705176664556,12.602362632751465,0.7476742509169589,40.51985950384606,53.8330078125,42.446234284323495
1557947531888,-16.061749420166016,-2.4349864196777347,0.5993536376953126,998.3490753173828,-7.073705176664556,8.554274559020996,1.7320015505875155,40.51986152804269,79.47001139322916,39.077337369976554
1557947531955,-10.322833557128908,-0.15088623046875002,0.5733078002929688,998.3490753173828,-7.073705176664556,8.554274559020996,1.1848810231779507,40.51986027813142,,32.49931756634195
1557947532021,-8.204588470458985,1.6169375610351564,2.5559349060058594,998.3490753173828,-7.073705176664556,6.788830757141113,1.1151366249320351,40.51986108755399,,40.66624050983427
1557947532088,-8.188272399902344,-0.929117889404297,1.723066864013672,998.3490753173828,-7.073705176664556,6.788830757141113,0.5433865368418287,40.519860563593,53.573459201388886,36.81964458994683
1557947532155,-7.867040405273438,1.6986676025390626,0.9677375793457031,998.3490753173828,-7.073705176664556,10.310953140258789,0.5859366717075757,40.519861612452196,,36.2148786458063
1557947532221,-6.919660491943359,-0.7002438354492188,1.1018586730957032,998.3490753173828,-7.073705176664556,11.633258819580078,0.5392726224648802,40.51986003685464,,34.92760389026837
1557947532290,-8.98177230834961,1.5676899719238282,2.030677185058594,998.3490753173828,-7.073705176664556,9.704042434692383,0.674851329404591,40.51986171743821,31.5478515625,39.87353388735794
1557947532354,-8.528963928222657,2.0047810363769534,1.3144166564941406,998.3490753173828,-7.073705176664556,8.65932846069336,0.2525056326272355,40.51986111894457,43.9501953125,31.395642661758497
1557947532420,-10.36609359741211,2.527643737792969,2.3809487915039065,998.3490753173828,-7.073705176664556,7.251412391662598,0.5489220280904401,40.51986171003969,,33.88101201570517
1557947532488,-12.451856231689455,1.9502943420410157,1.2630734252929687,998.3490753173828,-7.073705176664556,8.916196823120117,0.6803401752794574,40.51986101880667,,36.11829479498374
1557947532554,-14.474899291992188,4.377646636962891,4.517605590820312,998.3490753173828,-7.073705176664556,10.025063514709473,1.1647101355628964,40.519861590971054,152.52522786458331,37.18335578908507
1557947532621,-8.741072845458985,-1.0988648986816407,4.5110192871093755,998.3490753173828,-7.073705176664556,11.533967971801758,1.77151752229573,40.51986184687806,,57.315218835213244
1557947532688,-7.262747039794922,-0.896785125732422,3.090623016357422,998.3295440673828,-7.073705176664556,15.037355422973633,0.7945278977256132,40.519860699894856,52.8955078125,29.4101424370557
1557947532754,-8.535699920654297,0.24159759521484375,2.1739292907714844,998.3295440673828,-7.073705176664556,16.897411346435547,0.40496189227242513,40.519860612020935,52.8955078125,27.38780558484369
1557947532821,-8.330626373291016,-0.1273851013183594,1.7036073303222656,998.3295440673828,-7.073705176664556,16.897411346435547,0.19817462703035527,40.51986122013904,0.0,30.273496077747563
1557947532888,-7.921676788330078,0.8258326721191407,1.4898518371582032,998.3295440673828,-7.073705176664556,20.037891387939453,0.27215841954454667,40.51986082114443,0.0,32.36033147117636
1557947532954,-7.211553497314453,-1.4292279052734376,2.118394775390625,998.3295440673828,-7.073705176664556,23.563758850097656,0.56168901610427,37.04514431356217,0.0,40.73168262265102
1557947533025,-9.771380310058595,-2.0947439575195315,0.6930587768554688,998.3295440673828,-7.073705176664556,30.719701766967773,0.7330237168828329,37.045141753624364,,30.44147620878723
1557947533088,-9.836943969726564,-2.475102996826172,-0.6426136779785157,998.3295440673828,-7.073705176664556,33.519222259521484,0.4766034796847577,37.04513150389782,0.0,28.394780473741985
1557947533154,-12.979958038330079,-1.3886622619628908,1.8580860900878908,998.3295440673828,-7.073705176664556,33.519222259521484,1.0543979566236445,37.04512650726618,,37.14497408649806
1557947533220,-10.284064178466798,-3.412603454589844,4.053869934082032,998.3295440673828,-7.073705176664556,29.196029663085938,1.0041414412635654,37.04512390587335,,32.81941933440825
1557947533288,-8.135731658935548,1.0172845458984376,4.741988983154297,998.3295440673828,-7.073705176664556,24.741031646728516,1.2141409138593275,37.04512122073259,57.93591817220052,29.85426474083002
1557947533355,-10.297087097167969,1.0324031066894532,3.370690612792969,998.3295440673828,-7.073705176664556,21.145828247070312,0.5178798212612803,37.04511908577748,0.0,30.842186867392385
1557947533420,-7.514373779296875,0.41463775634765626,1.2789404296875,998.3295440673828,-7.073705176664556,27.094850540161133,0.8457808494200658,37.045117647102494,0.0,29.1539983521227
1557947533488,-7.298522644042969,0.5854325866699219,0.9813592529296875,998.3295440673828,-7.073705176664556,27.094850540161133,0.30176490745605455,37.04511805601188,0.0,30.678145111618402
1557947533555,-8.178243255615234,1.3513897705078126,1.6060102844238282,998.3295440673828,-7.073705176664556,24.200225830078125,0.27790351141559533,37.0451146240492,0.0,29.405164849325672
1557947533620,-8.595425720214845,2.066303100585938,1.2475057983398439,998.3295440673828,-7.073705176664556,22.219100952148438,0.2784095161057931,37.045105064711755,0.0,25.646660642520892
1557947533688,-9.426647186279297,2.1209394836425783,0.8291258239746094,998.2966613769531,-7.073705176664556,22.219100952148438,0.2816046679651448,37.04510044937439,0.0,27.435097647284298
1557947533754,-9.916129302978517,1.5530204772949219,0.5394781494140626,998.2966613769531,-7.073705176664556,25.689420700073242,0.2442242555857418,37.045099509169326,0.0,26.35483746814912
1557947533822,-11.347752227783204,2.221230926513672,0.14055770874023438,998.2966613769531,-7.073705176664556,26.98541259765625,0.4441193218747378,37.045097563461404,0.0,29.434945159061026
1557947533888,-15.894397430419923,3.112178192138672,1.865570526123047,998.2966613769531,-7.073705176664556,29.90046501159668,1.3257087878477618,37.04509893179447,0.0,32.6528962586083
1557947533955,-10.452463989257813,-0.9142987060546875,2.30640380859375,998.2966613769531,-7.073705176664556,31.48130226135254,1.3576132997505452,37.045097178010586,,27.543483357110187
1557947534024,-7.342231750488281,-0.07229965209960938,3.2021411132812503,998.2966613769531,-7.073705176664556,34.49005889892578,1.2057201883131563,37.0450994467855,0.0,34.41852175773292
1557947534088,-9.370513916015625,0.822689208984375,2.442321166992188,998.2966613769531,-7.073705176664556,37.28541564941406,0.4359282673419864,37.045098196940565,0.0,28.762178405916423
1557947534154,-8.257278900146485,-0.1490899658203125,0.21600082397460937,998.2966613769531,-7.073705176664556,46.696189880371094,0.6439368829923551,37.045099460108894,0.0,30.086001717619176
1557947534221,-7.611970825195313,0.4843927001953125,0.5517526245117188,998.2966613769531,-7.073705176664556,46.696189880371094,0.24654262902641993,37.04509857781422,0.0,31.658376246901284
1557947534289,-8.001610565185548,0.4544549560546875,1.5524217224121095,998.2966613769531,-7.073705176664556,51.46001052856445,0.23965224701505392,37.0450976044705,0.0,32.75771900164931
1557947534354,-7.076534271240234,-3.73383544921875,2.185605010986328,998.2966613769531,-6.266350254606952,61.68022918701172,1.0867193390203467,37.04509941856282,0.0,33.188977146274866
1557947534420,-9.575886840820313,-1.6091537475585938,0.2076182556152344,998.2966613769531,-6.4887426759434,65.07730102539062,0.76929991484423,37.045097815569825,,29.29929560084588
1557947534488,-10.604996795654298,-1.0918295288085937,-0.0622705078125,998.2966613769531,-6.751777081777194,60.94212341308594,0.47970817360186263,35.347017923299724,0.0,32.98853076409707
1557947534554,-13.201197967529298,-1.6049624633789064,0.9511221313476563,998.2966613769531,-7.073705176664556,59.397281646728516,0.7815937455119089,35.34701404926619,,37.35918116531297
1557947534620,-12.92487258911133,-4.763095092773438,3.2049851989746094,998.2966613769531,-7.073705176664556,57.8867301940918,1.0237233543769464,35.34701273851513,,33.265406685165615
1557947534688,-7.801776123046875,-0.02544708251953125,4.752916259765625,998.2579040527344,-7.073705176664556,54.30434036254883,1.6800792158494484,35.34701185998385,29.599609375,27.774268223893117
1557947534756,-8.552465057373047,-0.6715036010742188,5.044659576416016,998.2579040527344,-7.073705176664556,43.66741943359375,0.2569986476305683,35.3470120950352,0.0,30.15778756389041
1557947534821,-8.732839965820313,1.0698252868652345,3.047213287353516,998.2579040527344,-7.073705176664556,44.393516540527344,0.6391615984713424,35.34701196901842,0.0,28.407332346118068
1557947534888,-8.004155273437501,1.8790425109863282,1.7573455810546876,998.2579040527344,-7.073705176664556,45.65852355957031,0.5662646586910064,35.34701458038481,0.0,29.273703630390237
1557947534954,-7.718399505615235,1.143472137451172,1.191372528076172,998.2579040527344,-7.073705176664556,45.65852355957031,0.29495666620755107,37.62814544843907,0.0,28.573324964312686
1557947535023,-8.601113891601562,1.6985179138183595,1.1864328002929687,998.2579040527344,-7.073705176664556,44.18853759765625,0.2312226962502362,37.628146522090255,0.0,28.312296938670634
1557947535088,-8.385562133789064,2.4005580139160156,0.47301635742187503,998.2579040527344,-7.073705176664556,47.74692916870117,0.2815292289193778,37.62814276377354,0.0,25.68201724066995
1557947535154,-9.452393646240235,2.3547532653808596,0.5951623535156251,998.2579040527344,-7.073705176664556,51.161685943603516,0.26873958492214656,37.62813968741006,0.0,31.925674533365456
1557947535221,-9.945318603515625,2.605631561279297,0.3698808288574219,998.2579040527344,-7.073705176664556,52.210384368896484,0.21187783322659132,37.62813451341819,0.0,28.444771757456813
1557947535289,-10.217901763916016,2.575244750976563,0.3890409851074219,998.2579040527344,-7.073705176664556,55.477874755859375,0.1164769182243719,37.6281282243159,0.0,32.49442961442582
1557947535354,-12.755275268554689,5.480852508544922,1.1359877014160156,998.2579040527344,-7.073705176664556,57.49239730834961,1.002632256622396,37.62812981212344,0.0,32.079035303860515
1557947535420,-10.518177337646485,0.14160552978515625,1.1091934204101563,998.2579040527344,-7.073705176664556,61.36479187011719,1.2184991679923896,37.62812597804286,0.0,31.806992012960347
1557947535488,-6.4905029296875005,-2.2589524841308597,3.6645295715332034,998.2579040527344,-7.073705176664556,68.1510238647461,1.559314886303179,37.62812394808356,,34.149733479708175
1557947535579,-10.840906219482422,1.8133291625976564,1.8850300598144532,998.2579040527344,-7.073705176664556,74.47572326660156,1.1855358009561854,37.628118562522545,,26.5991620006985
1557947535620,-9.684710540771485,0.6251000976562501,1.7196240234375,998.2579040527344,-7.073705176664556,80.98271942138672,0.18027454900053305,37.6281199081539,0.0,37.114697818743274
1557947535688,-9.002129974365236,0.016914825439453125,1.1834390258789063,998.218994140625,-7.073705176664556,88.00346374511719,0.3096470535651181,37.6281183062814,,29.395192526186186
1557947535755,-9.119186553955078,0.057330780029296875,1.719474334716797,998.218994140625,-7.073705176664556,95.68807220458984,0.1014257304351224,37.62811245472685,0.0,28.870543780509568
1557947535820,-9.370064849853517,-0.07469467163085938,1.469194793701172,998.218994140625,-7.073705176664556,103.99685668945312,0.08120475579363316,37.62810532747096,0.0,26.020599913279625
1557947535887,-9.528585205078125,-1.096769256591797,0.5766009521484375,998.218994140625,-7.073705176664556,114.85670471191406,0.3576122897878159,37.62810166931079,0.0,30.310042813635366
1557947535955,-9.571545867919923,1.0199789428710937,-0.41149429321289066,998.218994140625,-7.073705176664556,120.67427062988281,0.5548665214485333,37.628101159349484,0.0,23.99673721481038
1557947536021,-9.704020385742188,1.4036311340332033,0.18890716552734377,998.218994140625,-7.073705176664556,122.52217864990234,0.22748749567247994,37.62809831534456,0.0,24.16640507338281
1557947536088,-10.693163452148438,-0.046253814697265624,-0.42002655029296876,998.218994140625,-7.073705176664556,124.45906829833984,0.4240584450190557,37.628095020910024,0.0,28.344207036815323
1557947536154,-13.00450698852539,0.47975234985351567,5.178780670166016,998.218994140625,-7.073705176664556,131.24526977539062,1.510589600909039,44.85397789896038,0.0,32.9622628726116
1557947536221,-4.466112670898438,0.5933660888671876,2.971919860839844,998.218994140625,-7.073705176664556,134.61361694335938,1.985669183834095,44.85397569531769,0.0,27.331972651065698
1557947536288,-12.502600708007813,0.9345066833496094,3.599414978027344,998.218994140625,-7.073705176664556,137.90997314453125,1.522206606475317,44.85397321571688,0.0,24.78566495593843
1557947536354,-9.238638153076172,0.7792794799804688,1.5175442504882812,998.218994140625,-7.073705176664556,140.32418823242188,0.6600633001797532,44.85396718360725,0.0,27.664128471123995
1557947536421,-8.46444808959961,0.8051756286621095,2.618504791259766,998.218994140625,-7.073705176664556,141.95741271972656,0.3386790205539013,44.85395992483338,0.0,26.483600109809316
1557947536488,-9.874216461181641,2.209255828857422,1.776954803466797,998.218994140625,-7.073705176664556,141.95741271972656,0.479615605732533,44.85395569303847,0.0,27.737864449811937
1557947536554,-9.287586364746094,1.4675482177734376,1.7911752319335938,998.218994140625,-7.073705176664556,141.95741271972656,0.13066587898196796,44.853947709497795,0.0,28.175653695597806
1557947536620,-9.732461242675782,1.8625767517089844,1.1150312805175782,998.218994140625,-7.073705176664556,140.80419921875,0.21443899873065542,44.85393994486946,0.0,27.860412102425542
1557947536688,-11.575428771972657,1.70525390625,0.5734574890136719,998.1858825683594,-7.073705176664556,140.80419921875,0.5165704796286847,44.85393522830736,0.0,28.432327780980096
1557947536754,-14.559922485351564,3.090772705078125,3.289559326171875,998.1858825683594,-7.073705176664556,143.50607299804688,1.127004067207713,44.85392691955681,0.0,56.025233534118605
1557947536820,-10.812315673828126,-0.652642822265625,2.9713211059570312,998.1858825683594,-7.073705176664556,145.18008422851562,1.1172625659666922,44.853923674374876,,50.90099264753921
1557947536888,-7.269632720947266,-2.1944366455078126,3.2467483520507816,998.1858825683594,-7.073705176664556,149.7240753173828,1.2252693976488807,44.85392141506197,45.9619140625,40.478198278165934
1557947536954,-10.393187255859376,0.06376739501953126,1.9809805297851564,998.1858825683594,-7.073705176664556,153.4291229248047,0.7235534844094342,44.85391971865652,45.9619140625,40.136796972911924
1557947537020,-7.315587158203125,-2.0239411926269533,1.6001724243164064,998.1858825683594,-7.073705176664556,156.70802307128906,0.7835534001468332,44.853917657198586,,49.39928394863652
1557947537087,-8.592431945800781,-0.58198974609375,2.1806652832031252,998.1858825683594,-7.073705176664556,159.03553771972656,0.31841528061669877,46.50252086024683,0.0,45.24201327535919
1557947537154,-8.712781677246094,-1.0446775817871095,1.9426602172851564,998.1858825683594,-7.073705176664556,160.98231506347656,0.09321768457052643,46.502517407421195,,34.91361693834273
1557947537221,-7.08491683959961,-0.9645941162109376,1.4847624206542969,998.1858825683594,-7.073705176664556,164.7167510986328,0.40850185574423686,46.50251108182801,,36.650178254124725
1557947537289,-7.241790618896485,-1.952839050292969,2.098935241699219,998.1858825683594,-7.073705176664556,164.7167510986328,0.280412278405605,46.50250302377514,41.3525390625,33.10055737750891
1557947537354,-9.750274200439454,-2.1070184326171875,1.4894027709960938,998.1858825683594,-7.073705176664556,161.35836791992188,0.6324833504930556,46.50250273858496,48.06640625,32.76461804173244
1557947537420,-12.684173126220704,-1.876348114013672,2.788700866699219,998.1858825683594,-7.073705176664556,159.71441650390625,0.9347933450289097,46.50249708998853,48.06640625,32.03576774977972
1557947537488,-13.049114227294922,-3.7086877441406254,4.588707733154297,998.1858825683594,-7.073705176664556,161.1498260498047,0.7579439364660294,46.50249630637179,,31.254812657005942
1557947537555,-8.883875885009767,0.04415817260742188,5.3299662780761725,998.1858825683594,-7.073705176664556,159.63140869140625,1.3074270478251826,46.502488578303115,0.0,28.836614351536177
1557947537620,-8.589138793945313,0.3107537841796875,4.442461853027344,998.1858825683594,-7.073705176664556,156.80984497070312,0.44028944983432966,49.87472531145436,,34.20780619548565
1557947537687,-7.896379394531251,0.4806504821777344,3.2600706481933597,998.1583404541016,-7.073705176664556,155.51768493652344,0.43061759124342064,49.87471946816819,,30.519239160461066
1557947537754,-7.719746704101563,1.2713063049316407,1.729054412841797,998.1583404541016,-7.073705176664556,155.51768493652344,0.5282231550925328,49.87471746649911,0.0,33.37059726320525
1557947537820,-7.164401550292969,0.055085449218750006,1.8621276855468751,998.1583404541016,-7.073705176664556,159.0541534423828,0.30935730749948176,49.874711476167825,,34.81585936367622
1557947537888,-8.745862884521484,0.5563929748535157,3.7808377075195314,998.1583404541016,-7.073705176664556,161.48876953125,0.5830040193546738,49.87470670678312,91.51668294270834,30.322157032979817
1557947537955,-9.373358001708985,1.1979588317871095,2.4899221801757814,998.1583404541016,-6.751777081777194,163.3216094970703,0.3667839959939829,49.874707789363306,91.51668294270834,28.09559714635268
1557947538024,-11.917317810058595,0.4149371337890625,3.2386651611328126,998.1583404541016,-6.266350254606952,164.47369384765625,0.7263310821223383,49.874704220103645,0.0,35.608626947274644
1557947538088,-14.564413146972656,0.11151809692382814,2.489323425292969,998.1583404541016,-6.073705176664556,166.19619750976562,0.8576678305472631,49.87469724900596,,36.80154141734373
