timestamp,AmbientLightSensor,DecibelSource,PitchSensor,LinearAccelerometerSensor,AccX,AccY,AccZ,BarometerSensor,CompassSensor,MagneticRotationSensor
1557947493913,,21.084219595019604,,,,,,,,
1557947493935,42.0,,,,,,,,,
1557947493941,47.0,,,1.7783325127859229,0.9577099084854126,0.5099805593490601,10.364815711975098,,148.69459792938994,47.26636665738827
1557947493942,,,,,,1.3838908672332764,,,,
1557947493954,,26.91876021749694,0.0,,,,,,,
1557947493978,,,,,,,,1004.42822265625,,
1557947493998,,27.00260136880984,,,,,,,,
1557947494001,,,,1.3261185243462663,0.6799740195274353,1.302485466003418,8.549955368041992,,148.5581444101514,47.62658474944682
1557947494033,,18.77046006678701,,,,,,,,
1557947494034,,,0.0,,,,,,,
1557947494042,47.0,,,,,,,,,
1557947494061,,,,1.2185672720839988,,,,,,
1557947494062,,,,,0.4597007632255554,0.6847625970840454,9.220352172851562,,149.40101707448767,47.34627328072399
1557947494074,,22.244129562410713,,,,,,,,
1557947494078,,,,,,,,1004.418701171875,,
1557947494113,,29.334961830481248,0.0,,,,,,,
1557947494121,52.0,,,3.274474350772158,0.9481328129768372,2.288926601409912,6.481301784515381,,148.1899562327527,47.425434312536034
1557947494153,,25.356614682159186,,,,,,,,
1557947494158,52.0,,,,,,,,,
1557947494181,,,,,1.0032011270523071,,9.09345531463623,,153.24425523742713,47.33802201252037
1557947494182,,,,1.4931631044593068,,0.8164477348327637,,1004.4189453125,,
1557947494193,,29.196345007748068,,,,,,,,
1557947494233,,26.79581872257156,,,,,,,,
1557947494234,,,0.0,,,,,,,
1557947494243,,,,2.396074454295472,1.2809370756149292,1.8795057535171509,7.450983047485352,,154.5595857470315,47.24397022169443
1557947494258,52.0,,,,,,,,,
1557947494273,,32.258887807611416,,,,,,,,
1557947494278,,,,,,,,1004.4189453125,,
1557947494301,54.0,,,1.4314252787710695,1.0032011270523071,2.1931557655334473,8.379961967468262,,154.94162554806698,46.63987979549538
1557947494313,,28.471282950521264,,,,,,,,
1557947494314,,,0.0,,,,,,,
1557947494354,,22.52593000347295,,,,,,,,
1557947494359,54.0,,,,,,,,,
1557947494361,,,,1.134029918127979,0.9577099084854126,,9.694418907165527,,157.6851349527427,46.45150778602454
1557947494362,,,,,1.1205205917358398,1.484450340270996,9.857229232788086,,160.93391443145927,
1557947494378,,,,,,,,1004.412109375,,
1557947494394,,16.647176404219618,0.0,,,,,,,
1557947494421,,,,2.2603036409824404,,,7.846038341522217,,,
1557947494422,,,,,1.0032011270523071,3.3663504123687744,8.825297355651855,,157.5848267945919,46.4978697250683
1557947494434,,20.486219008408245,,,,,,,,
1557947494459,54.0,,,,,,,,,
1557947494474,,27.201958799561385,,,,,,,,
1557947494480,,,,1.4475624511107363,,,,,,
1557947494481,52.0,,,,0.03351984918117523,1.4221992492675781,10.223553657531738,1004.403076171875,161.76492988739636,45.72495768883509
1557947494514,,29.142843773288792,0.0,,,,,,,
1557947494545,,,,1.5617422936989638,-0.5482889413833618,2.6528565883636475,10.939441680908203,,162.2760192826101,46.36528748550566
1557947494554,,28.86256293551495,,,,,,,,
1557947494575,52.0,,,,,,,,,
1557947494577,,,,,,,,1004.403076171875,,
1557947494594,,27.808913961390175,0.0,,,,,,,
1557947494600,,,,2.262623344136275,-1.3240339756011963,2.7175018787384033,11.506884574890137,,165.53026291266266,47.06884236698614
1557947494601,,,,,-1.6496553421020508,2.889889717102051,11.300976753234863,,166.70397628001598,
1557947494634,,29.35163822845719,,,,,,,,
1557947494662,47.0,,,2.035008049838854,-2.171607255935669,3.873936653137207,10.477346420288086,,165.48114019215194,46.266030117214584
1557947494674,,28.572418721825322,0.0,,,,,,,
1557947494678,,,,,,,,1004.392578125,,
1557947494680,47.0,,,,,,,,,
1557947494715,,27.544605843369432,,,,,,,,
1557947494721,,,,1.3969797816223166,,,9.452596664428711,,,
1557947494722,,,,,-2.051893472671509,2.4277946949005127,8.638543128967285,,166.73734858430066,46.75497624530995
1557947494754,,19.30786792589323,,,,,,,,
1557947494786,47.0,,,1.3925109247844056,-2.0064022541046143,2.3104751110076904,9.18443775177002,1004.392578125,167.14825276476864,46.16273651642566
1557947494794,,14.26549987521086,0.0,,,,,,,
1557947494834,,14.020077969163605,,,,,,,,
1557947494843,,,,1.3521166420680297,,,8.44221305847168,,,
1557947494844,46.0,,,,-1.5778270959854126,2.2458298206329346,9.61301326751709,,167.70026865348908,46.4165821459418
1557947494875,,9.637931794579217,0.0,,,,,,,
1557947494885,,,,,,,,1004.392578125,,
1557947494888,46.0,,,,,,,,,
1557947494906,,,,1.6470126823766185,-1.331216812133789,,9.850046157836914,,169.450149458468,
1557947494907,,,,,,1.429382085800171,,,,46.29006556849314
1557947494914,,12.532709549725965,,,,,,,,
1557947494954,,9.337133415531405,0.0,,,,,,,
1557947494967,,,,0.9985323208719677,,,,,,
1557947494968,,,,,-1.6376839876174927,2.2793495655059814,9.409500122070312,,170.14359124414273,46.46747301189255
1557947494988,46.0,,,,,,,1004.39453125,,
1557947494994,,28.531568580741254,,,,,,,,
1557947495020,,,,,-1.5155760049819946,2.8372156620025635,10.130176544189453,,170.79353838518279,44.82530045738306
1557947495021,,,,1.0600105742161023,-1.2976969480514526,2.5882110595703125,10.029617309570312,,172.54001775595503,
1557947495034,,28.183018418864826,,,,,,,,
1557947495074,,28.538888532232207,,,,,,,,
1557947495075,,,0.0,,,,,,,
1557947495093,,,,1.6686977964086653,-1.551490068435669,,7.7622389793396,,,
1557947495094,,,,,,2.9401695728302,,1004.39697265625,171.52166387146283,44.143894772318845
1557947495095,46.0,,,,,,,,,
1557947495114,,28.707786822240614,,,,,,,,
1557947495154,,,,0.814220843593356,-1.441353440284729,2.6121537685394287,9.78061294555664,,175.1412953013544,43.461126247112325
1557947495155,,28.726071275114627,0.0,,,,,,,
1557947495178,,,,,,,,1004.39697265625,,
1557947495194,,28.392039713449293,,,,,,,,
1557947495197,46.0,,,,,,,,,
1557947495200,,,,,-1.0941835641860962,,7.728719234466553,,,
1557947495201,,,,,,2.9258038997650146,8.356019020080566,,176.47852339743784,
1557947495202,43.0,,,1.7670625893777623,-0.9481328129768372,2.8946783542633057,,,176.83473142303234,41.58108225428215
1557947495234,,24.477783605051577,0.0,,,,,,,
1557947495265,,,,1.078413385714674,-1.1468576192855835,2.9665064811706543,10.285804748535156,,178.35522715492556,40.49719890058198
1557947495266,,,,,,2.6241252422332764,,,,
1557947495274,,17.662247848008615,,,,,,,,
1557947495287,,,,,,,,1004.3955078125,,
1557947495309,43.0,,,,,,,,,
1557947495314,,28.416343171580603,,,,,,,,
1557947495320,,,,0.7549589644263335,-1.1277034282684326,,9.869200706481934,,180.3082824094214,38.752800168912
1557947495321,,,,,-1.3288224935531616,2.267378330230713,10.52283763885498,,180.47014423237238,
1557947495322,,,,,,1.80049467086792,,,181.7085804723007,
1557947495354,,27.460372644699767,0.0,,,,,,,
1557947495380,,,,,-0.05985686928033829,,9.569916725158691,,,
1557947495381,21.0,,,2.031080385609195,-0.2729473412036896,0.7134938836097717,8.293767929077148,1004.389892578125,182.6526355590015,38.29838034494477
1557947495394,,14.636695760220439,,,,,,,,
1557947495416,21.0,,,,,,,,,
1557947495435,,27.359517617787503,0.0,,,,,,,
1557947495449,,,,2.6806989267996917,-1.5131816864013672,1.381496548652649,11.842082977294922,,182.53884460742916,36.116012981161084
1557947495474,,18.59505226868256,,,,,,,,
1557947495478,,,,,,,,1004.389892578125,,
1557947495501,,,,2.567011513601354,,,,,,
1557947495502,,,,,-0.19393625855445862,-0.19154198467731476,10.146936416625977,,190.8350929016501,34.380261659209
1557947495514,,17.11936284903238,0.0,,,,,,,
1557947495518,21.0,,,,,,,,,
1557947495554,,15.55775589623302,,,,,,,,
1557947495561,12.0,,,0.7224577760072926,-0.8020820617675781,1.082212209701538,9.335277557373047,,192.9732699609442,32.183610127704
1557947495562,,,,,,0.29210153222084045,,,198.16590761706811,
1557947495578,,,,,,,,1004.388427734375,,
1557947495594,,15.670090184797118,,,,,,,,
1557947495621,,,,2.3999954779900228,-1.939362645149231,0.014365648850798607,10.879584312438965,,197.08139652027512,30.77444301993054
1557947495628,12.0,,,,,,,,,
1557947495633,,13.923898439092746,,,,,,,,
1557947495634,,,0.0,,,,,,,
1557947495674,,12.595868368422408,,,,,,,,
1557947495683,,,,0.918462417643529,-1.6233183145523071,1.4221992492675781,8.949799537658691,1004.393798828125,204.8647795700981,30.774501670688746
1557947495714,,12.553819129592576,0.0,,,,,,,
1557947495729,12.0,,,,,,,,,
1557947495741,,,,0.7446392321261507,,,,,,
1557947495742,10.0,,,,-1.4820561408996582,1.0917893648147583,9.241900444030762,,208.8099651365892,29.737853616966742
1557947495753,,8.14765361504449,,,,,,,,
1557947495777,,,,,,,,1004.393798828125,,
1557947495794,,10.150497576488881,0.0,,,,,,,
1557947495800,,,,0.6109052664212089,-1.6568381786346436,,9.136552810668945,,217.37285035562917,
1557947495801,,,,,-2.111750364303589,2.0279507637023926,9.014444351196289,,228.4236046590895,29.96013253288345
1557947495829,10.0,,,,,,,,,
1557947495833,,13.054147427021478,,,,,,,,
1557947495860,,,,1.4121886847082286,,,,,,
1557947495861,,,,,-2.949746608734131,0.6296942830085754,9.988914489746094,,217.7625536289134,28.91427281712851
1557947495862,,,,,-2.286532402038574,,9.763853073120117,,,
1557947495874,,19.834365474221404,,,,,,,,
1557947495878,,,,,,,,1004.39013671875,,
1557947495914,,13.127255582509553,0.0,,,,,,,
1557947495921,16.0,,,2.7545432794632725,-2.4589202404022217,2.267378330230713,7.1756415367126465,,233.24870983597498,26.085927344186732
1557947495941,16.0,,,,,,,,,
1557947495954,,29.645367491883434,,,,,,,,
1557947495981,,,,3.51296204484068,-1.2474172115325928,1.6640210151672363,12.6657133102417,1004.395751953125,239.56912100709468,21.533647578852786
1557947495982,,,,,,2.049499273300171,,,,
1557947495994,,16.891396589726916,0.0,,,,,,,
1557947496034,,13.951737924288857,,,,,,,,
1557947496042,16.0,,,,,,,,,
1557947496044,,,,1.6090943915903018,-2.8635525703430176,,9.311334609985352,,,
1557947496045,,,,,,1.9633053541183472,,,246.8668366257948,23.782109926718643
1557947496074,,13.332392982061554,0.0,,,,,,,
1557947496079,,,,,,,,1004.395751953125,,
1557947496103,25.0,,,2.6851643903762628,-2.4589202404022217,,11.470970153808594,,257.3794881358741,27.08938415718706
1557947496104,,,,,,1.6688095331192017,,,,
1557947496115,,29.32566366926409,,,,,,,,
1557947496143,25.0,,,,,,,,,
1557947496154,,23.19588741878816,,,,,,,,
1557947496168,,,,2.8056208935505946,-4.774183750152588,0.67518550157547,11.64335823059082,,257.93603244001423,28.985092085767228
1557947496189,,,,,,,,1004.390625,,
1557947496194,,21.566013409437307,0.0,,,,,,,
1557947496221,,,,3.564063013754895,,,11.02324104309082,,,
1557947496222,,,,,-6.749460697174072,0.36871832609176636,10.534809112548828,,277.11138555366404,30.024348745713993
1557947496223,,,,,,0.9265843629837036,,,,
1557947496234,,19.751685957757093,,,,,,,,
1557947496255,25.0,,,,,,,,,
1557947496274,,18.541751752319197,0.0,,,,,,,
1557947496281,24.0,,,4.063561403561853,-5.363175392150879,,12.330514907836914,1004.40185546875,273.2894780715025,29.515365330225013
1557947496282,,,,,-6.608198642730713,-0.019154198467731476,12.648953437805176,,267.54864260240424,
1557947496314,,18.850559289654388,,,,,,,,
1557947496351,,,,3.999586441595729,-5.5307745933532715,0.49322059750556946,9.565128326416016,,271.46496378946284,27.032445998738105
1557947496352,,,,,,0.5506832003593445,,,,
1557947496354,,19.84950619743945,0.0,,,,,,,
1557947496372,24.0,,,,,,,,,
1557947496394,,34.033444750330695,,,,,,,,
1557947496396,,,,,,,,1004.40185546875,,
1557947496401,,,,,,,,,264.3167610116943,26.974921318724313
1557947496402,,,,1.8374484723190836,-2.8946783542633057,0.2968900799751282,9.524425506591797,,262.5729385845092,
1557947496434,,26.337266011858603,,,,,,,,
1557947496465,26.0,,,1.8569634450458556,-1.9273911714553833,0.7925049662590027,7.834067344665527,,266.5035621876898,27.176554662155617
1557947496474,,17.984368814266134,,,,,,,,
1557947496475,,,0.0,,,,,,,
1557947496487,26.0,,,,,,,1004.403076171875,,
1557947496514,,17.27870319339771,,,,,,,,
1557947496521,,,,3.5124597839008076,-2.413429021835327,,6.172440528869629,,,
1557947496522,,,,,-2.1141445636749268,0.31604427099227905,6.445387840270996,,263.91554886965855,27.574291533889408
1557947496554,,19.418673452673474,0.0,,,,,,,
1557947496581,,,,1.6884686550928203,-2.2530126571655273,0.73504239320755,8.293767929077148,1004.3984375,271.5541455694557,26.204411750254717
1557947496582,,,,,-2.628913640975952,0.49322059750556946,7.417463302612305,,277.90055244055645,
1557947496594,,24.001168491427258,,,,,,,,
1557947496601,26.0,,,,,,,,,
1557947496634,,22.55370973413875,0.0,,,,,,,
1557947496644,20.0,,,2.552917800769416,-2.111750364303589,0.37590113282203674,7.690410614013672,,275.7869982132202,24.955455471729753
1557947496674,,21.95869856641728,,,,,,,,
1557947496681,,,,,,,,1004.39990234375,,
1557947496702,,,,1.9431198815995832,,,,,,
1557947496703,,,,,0.7110996246337891,0.5530774593353271,10.740716934204102,,273.9803448758601,25.017985646693788
1557947496713,20.0,,,,,,,,,
1557947496714,,17.77033713069449,0.0,,,,,,,
1557947496754,,21.738846464825173,,,,,,,,
1557947496766,,,,2.587629151000566,,,10.83409309387207,,,
1557947496767,,,,,1.5490957498550415,-0.39266106486320496,,,271.1749744478716,25.28820252268679
1557947496786,,,,,,,,1004.396240234375,,
1557947496794,,21.13372933215965,,,,,,,,
1557947496822,13.0,,,4.345897774783948,3.536343812942505,0.05027977004647255,12.670502662658691,,267.6026830591174,25.522930736677733
1557947496825,13.0,,,,,,,,,
1557947496834,,21.544243181722337,0.0,,,,,,,
1557947496874,,18.796425711844233,,,,,,,,
1557947496889,,,,2.5920314380834935,3.3088877201080322,,11.502096176147461,,,
1557947496890,,,,,,0.6153286099433899,,1004.39453125,272.2870385277764,25.558450178185456
1557947496914,,24.263277261897194,0.0,,,,,,,
1557947496934,13.0,,,,,,,,,
1557947496954,,18.411657320282686,,,,,,,,
1557947496957,,,,2.9211077167169948,2.1476645469665527,0.4716721475124359,12.411920547485352,,275.95423539504793,25.646683451144877
1557947496979,,,,,,,,1004.3857421875,,
1557947496994,,19.20265932402057,0.0,,,,,,,
1557947497003,,,,2.4034050310774093,,,7.182824611663818,,,
1557947497004,7.0,,,,4.173221111297607,1.6616266965866089,,,290.5606495766336,26.213683180927365
1557947497034,,13.850365022229436,,,,,,,,
1557947497045,7.0,,,,,,,,,
1557947497065,,,,2.396435426990952,1.6640210151672363,,7.355212211608887,,310.51556974629733,
1557947497066,,,,,,1.8603515625,,,314.5545508855656,26.866604029438875
1557947497078,,12.412335374332814,,,,,,,,
1557947497085,,,,,,,,1004.367431640625,,
1557947497114,,14.757074167202733,0.0,,,,,,,
1557947497121,,,,3.197500659504122,,,,,,
1557947497122,,,,,3.064671754837036,2.099778890609741,5.834847927093506,,305.30219905094793,27.845365690830075
1557947497152,7.0,,,,,,,,,
1557947497154,,16.13827445072509,,,,,,,,
1557947497183,,,,2.861837025457306,,,,,,
1557947497184,10.0,,,,2.111750364303589,1.9369683265686035,6.51242733001709,1004.361572265625,318.75921533862544,28.716504160844295
1557947497194,,15.735385910079472,0.0,,,,,,,
1557947497234,,12.735392931250695,,,,,,,,
1557947497242,,,,1.552537821679118,3.7111258506774902,,7.498868465423584,,,
1557947497243,,,,,,0.8116591572761536,,,303.9536294257477,30.423313521549442
1557947497265,10.0,,,,,,,,,
1557947497274,,17.36681005714202,0.0,,,,,,,
1557947497286,,,,,,,,1004.363525390625,,
1557947497309,,,,2.1716069117786185,2.911438226699829,2.3128695487976074,9.941028594970703,,336.66732076688044,30.395610770985275
1557947497314,,17.617949219064847,,,,,,,,
1557947497354,,23.05053879068225,,,,,,,,
1557947497373,6.0,,,2.8994288638473664,3.222693920135498,1.7095122337341309,11.339285850524902,,347.94716473774497,30.640502046899222
1557947497374,6.0,,,,,,,,,
1557947497378,,,,,,,,1004.365478515625,,
1557947497394,,20.90629092406076,0.0,,,,,,,
1557947497421,,,,4.1448568347461645,2.9856607913970947,,12.124608039855957,,357.1131343161558,
1557947497422,,,,,3.3639562129974365,2.877918243408203,11.885180473327637,,355.9826812325713,30.392235615659697
1557947497434,,18.163427746170907,,,,,,,,
1557947497474,,20.202198363252887,0.0,,,,,,,
1557947497480,6.0,,,,,,,,,
1557947497481,,,,,,,12.050385475158691,,,
1557947497482,,,,,3.6153550148010254,2.48046875,,1004.355224609375,354.2162256929108,30.24428566551838
1557947497483,,,,3.9417033693138497,,,13.070345878601074,,,
1557947497514,,19.628743265024585,,,,,,,,
1557947497543,5.0,,,,6.526793003082275,1.721483588218689,12.742330551147461,,342.865606448093,28.59715945673608
1557947497544,,,,4.731758023883093,,,,,,
1557947497554,,16.68552834790823,0.0,,,,,,,
1557947497588,5.0,,,,,,,1004.359130859375,,
1557947497594,,15.97232384316291,,,,,,,,
1557947497610,,,,0.43105250203763035,4.654470443725586,2.1859729290008545,8.315316200256348,,341.72433818684453,29.386588115140036
1557947497634,,18.14750275025068,,,,,,,,
1557947497669,,,,1.9237260665544966,3.569863796234131,,7.934626579284668,,343.44087400829545,
1557947497670,,,,,,2.1524529457092285,,,345.4393583311372,29.25515341975866
1557947497674,,19.84180200350674,0.0,,,,,,,
1557947497688,,,,,,,,1004.35400390625,,
1557947497689,5.0,,,,,,,,,
1557947497714,,13.755703075942352,,,,,,,,
1557947497723,7.0,,,,4.182797908782959,1.5275473594665527,4.85080099105835,,291.6340479556469,32.52492461638107
1557947497726,,,,3.6288092757326824,4.867560863494873,1.7933118343353271,2.8108785152435303,,261.39056453728824,
1557947497754,,11.246986265264935,0.0,,,,,,,
1557947497791,,,,3.851872244058193,3.9553420543670654,,3.2083282470703125,,,
1557947497792,7.0,,,,6.5866498947143555,3.2035396099090576,,1004.357177734375,304.0610170749732,35.68512176595522
1557947497794,,14.07543125901633,,,,,,,,
1557947497834,,9.722206861046923,,,,,,,,
1557947497835,,,0.0,,,,,,,
1557947497842,,,,2.154640592267802,7.4270405769348145,,3.8571767807006836,,,
1557947497843,,,,,,2.36075496673584,,,233.7727219490984,37.38751058962874
1557947497875,,12.6110095454627,,,,,,,,
1557947497886,,,,,,,,1004.36083984375,,
1557947497906,,,,2.8213521039923655,,,,,,
1557947497907,7.0,,,,9.553156852722168,2.171607255935669,2.9281980991363525,,213.94238784499026,37.968196304315384
1557947497914,,9.023815883324287,,,,,,,,
1557947497954,,19.79931181676349,0.0,,,,,,,
1557947497961,,,,3.04774501801319,9.172467231750488,,3.2610023021698,,194.63057438191277,
1557947497962,,,,,8.480521202087402,0.7206767201423645,3.134105682373047,,195.83850699700793,37.505231566350595
1557947497978,,,,,,,,1004.353515625,,
1557947497994,,16.92840926570102,,,,,,,,
1557947498017,7.0,,,,,,,,,
1557947498022,,,,6.015602805356783,5.968926906585693,-2.099778890609741,0.7110996246337891,,203.2218595275217,37.043720126188106
1557947498034,,13.255128709305122,0.0,,,,,,,
1557947498074,,13.679767852945943,,,,,,,,
1557947498081,,,,4.142782318679781,,,,,,
1557947498082,5.0,,,,9.648927688598633,-3.8236567974090576,1.429382085800171,1004.357421875,197.16415109225898,37.6428143628803
1557947498083,,,,,,,,,197.906456051256,
1557947498114,,13.946382752230704,0.0,,,,,,,
1557947498122,5.0,,,,,,,,,
1557947498143,,,,2.1465633471525183,9.699207305908203,,-0.0885881707072258,,204.53127509330477,
1557947498144,,,,,,-3.8523881435394287,,,214.05697109850638,34.02857015977207
1557947498154,,17.806919604364097,,,,,,,,
1557947498187,,,,,,,,1004.356689453125,,
1557947498194,,15.064175885548645,,,,,,,,
1557947498210,,,,5.515101075616618,14.12143325805664,-4.814886569976807,2.425400495529175,,203.8777625935179,32.983031030082685
1557947498232,5.0,,,,,,,,,
1557947498234,,12.274115289476304,0.0,,,,,,,
1557947498274,,13.47352144972084,,,,,,,,
1557947498276,4.0,,,3.2075629031761843,10.99211597442627,,0.8571503758430481,,229.26769309709806,
1557947498277,,,,,,-4.149278163909912,,,261.5583071531146,32.34528612379141
1557947498278,,,,,,,,1004.363525390625,,
1557947498314,,11.478304996072302,0.0,,,,,,,
1557947498321,,,,5.028950230772222,11.736735343933105,-3.7614057064056396,0.8284190893173218,,267.41552904566987,32.91113432202955
1557947498341,4.0,,,,,,,,,
1557947498354,,9.695088873125112,,,,,,,,
1557947498381,,,,4.333988775910338,,,,,,
1557947498382,,,,,9.9434232711792,-3.818868398666382,1.0462981462478638,1004.3583984375,281.5859517619661,34.42917770214817
1557947498394,,9.625067770899543,0.0,,,,,,,
1557947498434,,8.525602082722534,,,,,,,,
1557947498444,4.0,,,4.970965581234138,10.379180908203125,-3.536343812942505,1.4772675037384033,,307.57011213843185,35.593151188872774
1557947498474,,10.418624466771508,,,,,,,,
1557947498485,,,,,,,,1004.3623046875,,
1557947498508,,,,3.1631445789466115,9.431048393249512,-4.453351020812988,0.6680026650428772,,302.982202355948,36.20039150334039
1557947498514,,21.975227813345647,0.0,,,,,,,
1557947498549,4.0,,,,,,,,,
1557947498554,,24.721666642926174,,,,,,,,
1557947498571,,,,2.9113861966736123,8.676852226257324,,1.8579572439193726,,311.8840357125498,
1557947498572,,,,,,-4.300117492675781,,,309.8595778878418,34.54593335022532
1557947498592,,,,,,,,1004.3671875,,
1557947498594,,22.35376693300224,0.0,,,,,,,
1557947498621,,,,3.9397905741379713,,,,,,
1557947498622,,,,,11.35125732421875,-6.162863254547119,1.0462981462478638,,307.19677399839895,34.28914585334625
1557947498623,,,,,,-4.85080099105835,,,,
1557947498634,,19.39932217228303,,,,,,,,
1557947498654,4.0,,,,,,,,,
1557947498676,,19.63790503409983,0.0,,,,,,,
1557947498682,,,,2.5735010469299997,,,,,,
1557947498683,,,,,8.3033447265625,-3.8643596172332764,1.6616266965866089,1004.357421875,312.2367808322351,32.1749952873458
1557947498714,,24.24179495648465,,,,,,,,
1557947498748,,,,4.691092576745702,12.304178237915039,-5.238673210144043,2.5307483673095703,,317.51734692863914,30.90529874816783
1557947498754,4.0,24.377622436228524,,,,,,,,
1557947498778,,,,,,,,1004.36376953125,,
1557947498794,,24.541134230502987,0.0,,,,,,,
1557947498801,3.0,,,5.295195456725536,13.376812934875488,-6.610592842102051,0.8499675393104553,,301.6525899207892,29.05883678400184
1557947498834,,30.311076541691712,,,,,,,,
1557947498854,3.0,,,,,,,,,
1557947498861,,,,4.608878002204982,11.02084732055664,-7.50126314163208,0.3663240373134613,,276.69111718384397,28.723272461459427
1557947498876,,30.756421202065077,0.0,,,,,,,
1557947498879,,,,,,,,1004.36083984375,,
1557947498914,,31.41784368032387,,,,,,,,
1557947498920,,,,,,,,,194.72369718105676,
1557947498921,,,,5.810549172793663,7.9825119972229,-7.419857501983643,2.3368122577667236,,168.78723861838324,30.132845360879788
1557947498954,3.0,31.715299476255865,0.0,,,,,,,
1557947498981,,,,6.2514646721288445,5.669642925262451,-6.316096782684326,3.098191499710083,1004.358154296875,134.27666964813997,29.951599955636716
1557947498982,,,,,5.480494976043701,-6.292154312133789,2.9976320266723633,,144.13768696045418,
1557947498994,,28.67821108315607,,,,,,,,
1557947499034,,28.05422252403645,,,,,,,,
1557947499041,,,,6.64035069516184,4.642498970031738,-5.794145107269287,3.3040993213653564,,130.23538332002684,30.70734049394676
1557947499042,,,,,5.214730739593506,-5.877944469451904,2.7989072799682617,,158.6937899686135,
1557947499061,3.0,,,,,,,,,
1557947499074,,23.166121284640653,0.0,,,,,,,
1557947499081,,,,,,,,1004.345947265625,,
1557947499101,,,,5.959787720349682,5.5355634689331055,-6.047938346862793,2.135693073272705,,179.71884710196193,29.618006498903984
1557947499114,,20.050398742797135,,,,,,,,
1557947499154,,22.28579586952221,0.0,,,,,,,
1557947499162,5.0,,,5.161742458228435,6.969734191894531,-6.715940952301025,0.7853221297264099,,219.06964693037878,30.56238776235743
1557947499163,5.0,,,,,,,,,
1557947499182,,,,,,,,1004.340087890625,,
1557947499194,,17.99914633452448,,,,,,,,
1557947499221,,,,5.072081928650442,9.217958450317383,,0.11013664305210114,,230.6167374204456,
1557947499222,,,,,,-8.262641906738281,,,220.5448994892098,29.94631055862493
1557947499233,,17.170531527782952,,,,,,,,
1557947499234,,,0.0,,,,,,,
1557947499272,5.0,,,,,,,,,
1557947499274,,19.994013247457048,,,,,,,,
1557947499280,,,,,,,1.9776710271835327,,,
1557947499281,,,,1.9215287927936533,7.874769687652588,-6.584255695343018,2.26019549369812,1004.337158203125,208.90551948307768,30.88415126114192
1557947499282,,,,,,-5.715134143829346,,,244.8047068927196,
1557947499313,,21.307366179638745,,,,,,,,
1557947499314,,,0.0,,,,,,,
1557947499342,3.0,,,1.9779729823898837,9.553156852722168,-5.171633720397949,1.2162915468215942,,287.64967076369834,31.561424778009396
1557947499343,,,,,,-5.308107376098633,,,,
1557947499354,,20.35450159715218,,,,,,,,
1557947499387,3.0,,,,,,,1004.33056640625,,
1557947499394,,21.20823788287533,,,,,,,,
1557947499410,,,,2.780496559529199,8.868393898010254,-5.5307745933532715,-0.7278595566749573,,300.1491218504968,30.7859056037165
1557947499434,,29.47621803626668,0.0,,,,,,,
1557947499461,,,,3.1065960451484407,8.186025619506836,-4.673624515533447,0.5913859009742737,,327.132098355334,31.039548983197587
1557947499474,,26.177644306657093,,,,,,,,
1557947499483,,,,,,,,1004.339599609375,,
1557947499506,3.0,,,,,,,,,
1557947499514,,25.592706550170973,0.0,,,,,,,
1557947499528,,,,4.478497524699032,,,0.6464542150497437,,,
1557947499529,,,,,8.42066478729248,-3.7925312519073486,,,341.28422299484373,32.61048323932123
1557947499554,,13.193256342753356,,,,,,,,
1557947499587,,,,4.668472122440897,8.145322799682617,-3.5866236686706543,-0.4908263385295868,1004.3369140625,342.4764154389965,32.91124418045416
1557947499588,,,,,,-3.8906965255737305,,,,
1557947499594,,11.913787648256344,0.0,,,,,,,
1557947499607,3.0,,,,,,,,,
1557947499634,,10.88638244575824,,,,,,,,
1557947499643,,,,4.119170259791454,,,1.6233183145523071,,,
1557947499644,,,,,8.988107681274414,,1.9800652265548706,,355.39758716458726,
1557947499674,,10.689679426998524,,,,,,,,
1557947499678,,,,,,,,1004.329833984375,,
1557947499701,,,,3.666613376114578,9.28260326385498,-5.403878211975098,1.8795057535171509,,4.819546256674698,33.253696608316105
1557947499709,3.0,,,,,,,,,
1557947499714,,19.140719840335308,0.0,,,,,,,
1557947499754,,23.573989263489228,,,,,,,,
1557947499762,,,,3.348372357224769,9.328094482421875,,2.3008980751037598,,6.750360053427755,
1557947499763,,,,,,-5.937801361083984,,,7.369728010666847,34.6578831061541
1557947499779,,,,,,,,1004.32470703125,,
1557947499794,,21.519587986069332,0.0,,,,,,,
1557947499810,3.0,,,,,,,,,
1557947499821,,,,4.417232597128962,,,,,,
1557947499822,,,,,10.589877128601074,-7.110996246337891,3.2083282470703125,,10.589763492035047,33.98738962616706
1557947499834,,19.63809235399285,,,,,,,,
1557947499876,,20.31135842482712,0.0,,,,,,,
1557947499889,,,,3.5700138559793806,8.985713005065918,-4.7310872077941895,3.2035396099090576,1004.32958984375,8.46861494811543,33.72218915584604
1557947499914,,22.351174442164698,,,,,,,,
1557947499926,3.0,,,,,,,,,
1557947499945,,,,3.6735961775945922,10.774236679077148,-5.229096412658691,2.5259599685668945,,1.6945939454639642,32.429985354841044
1557947499954,,21.574982275901444,,,,,,,,
1557947499979,,,,,,,,1004.320556640625,,
1557947499993,,14.113123259838245,,,,,,,,
1557947499994,,,0.0,,,,,,,
1557947500001,,,,3.9694296187371694,,,,,,
1557947500002,,,,,11.47336483001709,-7.3623948097229,1.872322916984558,,353.20000154677916,30.410767713024082
1557947500029,3.0,,,,,,,,,
1557947500034,,25.865598775272357,,,,,,,,
1557947500062,,,,3.117974738810883,,,,,,
1557947500063,2.0,,,,10.249890327453613,-6.969734191894531,1.2306572198867798,,340.4743913706174,29.610288326633654
1557947500074,,25.428423571978342,0.0,,,,,,,
1557947500079,,,,,,,,1004.310791015625,,
1557947500114,,28.70869177195447,,,,,,,,
1557947500122,,,,3.804192168090068,,,,,,
1557947500123,,,,,7.5180230140686035,-6.5243988037109375,1.9609110355377197,,330.2647270521199,28.8143717304229
1557947500136,2.0,,,,,,,,,
1557947500154,,23.320844766514806,0.0,,,,,,,
1557947500183,,,,5.473112448085163,,,,,,
1557947500184,,,,,5.300924301147461,-5.870761871337891,2.6767992973327637,1004.31787109375,322.5804944433833,28.508776311447058
1557947500185,,,,,,-6.038361072540283,,,,
1557947500194,,28.430359865057486,,,,,,,,
1557947500234,,28.798815731470015,,,,,,,,
1557947500247,3.0,,,6.505409923776302,5.549929141998291,,1.5874042510986328,,252.95651034637314,28.127266859411186
1557947500248,3.0,,,,,-7.079870700836182,,,,
1557947500274,,24.748131746529506,,,,,,,,
1557947500275,,,0.0,,,,,,,
1557947500282,,,,,,,,1004.3115234375,,
1557947500303,,,,6.286809330464634,6.136526107788086,,1.3264282941818237,,,
1557947500304,,,,,,-7.678439140319824,,,232.73969681826895,29.24739932520853
1557947500313,,21.879058349909144,,,,,,,,
1557947500348,3.0,,,,,,,,,
1557947500354,,20.849833787229674,0.0,,,,,,,
1557947500364,,,,4.925287910217549,8.226728439331055,-7.9801177978515625,2.2458298206329346,,248.52291844290198,27.858741888624614
1557947500381,,,,,,,,1004.312255859375,,
1557947500393,,17.531755761363417,,,,,,,,
1557947500428,,,,,,,0.9194015264511108,,,
1557947500429,4.0,,,4.712518278132035,8.693612098693848,-9.021627426147461,1.0917893648147583,,252.6517131546613,28.989500459365406
1557947500433,,16.688854232233624,,,,,,,,
1557947500434,,,0.0,,,,,,,
1557947500461,4.0,,,,,,,,,
1557947500474,,16.747507797370528,,,,,,,,
1557947500484,,,,1.7338234651673359,8.463761329650879,,2.4373717308044434,1004.308837890625,312.8606912921591,29.594113058961305
1557947500485,,,,,,-5.707951068878174,,,,
1557947500514,,17.310284045944297,,,,,,,,
1557947500544,,,,2.477415786220335,9.241900444030762,-5.185999393463135,0.5842030644416809,,324.78859556430547,29.860776712187224
1557947500554,,17.08231030295047,0.0,,,,,,,
1557947500560,4.0,,,,,,,,,
1557947500580,,,,,,,,1004.308837890625,,
1557947500594,,24.464487519653822,,,,,,,,
1557947500603,,,,,,,-0.5554717779159546,,,
1557947500604,2.0,,,3.8537296906615706,8.265036582946777,-3.94097638130188,-0.36392977833747864,,328.1510123153381,29.647831970641437
1557947500634,,32.76495931962293,0.0,,,,,,,
1557947500660,2.0,,,,,,,,,
1557947500664,,,,3.952890743506901,7.771816253662109,-3.689577579498291,-0.1005595400929451,,333.8064345613181,30.03657640654064
1557947500674,,15.430116232944533,,,,,,,,
1557947500680,,,,,,,,1004.30859375,,
1557947500713,,22.621644360229354,,,,,,,,
1557947500714,,,0.0,,,,,,,
1557947500723,,,,4.18183629782149,7.285778045654297,-3.4309957027435303,0.9337671995162964,,341.1058645574999,31.447440465629256
1557947500728,,,,,8.023215293884277,-3.569863796234131,1.0032011270523071,,343.8530998303678,
1557947500754,,13.462109988510157,,,,,,,,
1557947500761,2.0,,,,,,,,,
1557947500783,,,,,8.945011138916016,,0.7254652380943298,,,
1557947500784,3.0,,,,,,0.8044763207435608,,343.68625367687,30.981445299571522
1557947500785,,,,4.393691108927543,9.069513320922852,-3.6369035243988037,,1004.306396484375,348.88359477201107,
1557947500793,,13.354397054861849,,,,,,,,
1557947500834,,17.875640824865826,0.0,,,,,,,
1557947500851,,,,3.352913537516808,9.440625190734863,,1.0415095090866089,,,
1557947500852,,,,,,-4.819674968719482,,,348.53456186013966,31.890945115640662
1557947500874,,11.66314635168069,,,,,,,,
1557947500876,3.0,,,,,,,,,
1557947500880,,,,,,,,1004.306396484375,,
1557947500903,,,,2.552035106800126,9.54118537902832,,0.967287003993988,,349.6660894178581,
1557947500904,,,,,9.71117877960205,-5.46134090423584,1.3383996486663818,,351.9388818217304,31.855083512529216
1557947500913,,26.000370735919624,,,,,,,,
1557947500914,,,0.0,,,,,,,
1557947500954,,22.091714162928895,,,,,,,,
1557947500963,2.0,,,,10.130176544189453,,1.7981003522872925,,,
1557947500964,,,,2.8331634994169876,10.594666481018066,-5.954561233520508,2.044710636138916,,352.304883484821,31.513483043658283
1557947500981,,,,,,,,1004.28515625,,
1557947500984,2.0,,,,,,,,,
1557947500994,,20.118992232997076,0.0,,,,,,,
1557947501023,,,,2.977131145957378,,,,,,
1557947501024,,,,,10.04398250579834,-7.041562080383301,2.3799092769622803,,355.162169753804,31.619203229778694
1557947501034,,19.288740504870077,,,,,,,,
1557947501074,,21.46136828399439,,,,,,,,
1557947501083,,,,3.0716515647060194,9.814132690429688,,2.207521438598633,,,
1557947501084,2.0,,,,10.324112892150879,-3.9840731620788574,1.6376839876174927,1004.2890625,354.88218279736543,30.31811222304438
1557947501114,,20.48452373669467,0.0,,,,,,,
1557947501144,,,,1.8466581265680115,9.883566856384277,-5.64091157913208,1.1684061288833618,,347.392367254485,30.135412975954473
1557947501154,,19.607425088004156,,,,,,,,
1557947501180,,,,,,,,1004.2890625,,
1557947501194,,26.61565343669811,0.0,,,,,,,
1557947501201,2.0,,,,,,,,,
1557947501203,,,,1.563625921850644,9.16288948059082,,1.132491946220398,,338.5958400469592,
1557947501204,,,,,8.868393898010254,-6.083852291107178,1.0199611186981201,,329.928732971374,27.535031957793098
1557947501234,,26.71257350459323,,,,,,,,
1557947501263,,,,1.4829233399459232,8.16208267211914,,1.2665714025497437,,,
1557947501264,,,,,8.135746002197266,-5.490072250366211,,,330.2177319355356,27.19820565689197
1557947501274,,28.696776426641684,0.0,,,,,,,
1557947501281,,,,,,,,1004.281982421875,,
1557947501301,2.0,,,,,,,,,
1557947501314,,25.69465477908914,,,,,,,,
1557947501323,,,,,,,2.0303449630737305,,,
1557947501325,0.0,,,2.205674988592824,7.570696830749512,-5.181210517883301,2.485257148742676,,324.25493239388487,28.000784506979233
1557947501354,,25.624918013856277,,,,,,,,
1557947501383,,,,3.467939952396485,,,1.9680938720703125,,,
1557947501385,,,,,6.8979058265686035,-5.698374271392822,1.7621862888336182,1004.2724609375,317.54766272327026,26.610929598478034
1557947501386,,,,,6.81171178817749,-6.253845691680908,,,301.822081065043,
1557947501393,,25.16064455736123,0.0,,,,,,,
1557947501409,0.0,,,,,,,,,
1557947501434,,23.588657322602007,,,,,,,,
1557947501446,,,,4.675327416036609,,,,,,
1557947501447,,,,,6.933819770812988,-6.988888263702393,1.7095122337341309,,294.93853445723414,26.90409578548944
1557947501474,,20.198413231395108,0.0,,,,,,,
1557947501485,,,,,,,,1004.2724609375,,
1557947501504,2.0,,,4.557259672506741,7.348029613494873,,2.542719841003418,,,
1557947501505,,,,,,-7.242681503295898,,,281.17934377048607,27.851247413134864
1557947501513,2.0,,,,,,,,,
1557947501514,,24.591359550442316,,,,,,,,
1557947501554,,21.441486666990418,0.0,,,,,,,
1557947501564,,,,4.774615502979684,9.773429870605469,,1.271359920501709,,288.32805881244235,
1557947501565,,,,,,-8.267431259155273,,,280.567160745367,27.291162608379846
1557947501586,,,,,,,,1004.261474609375,,
1557947501594,,16.234778433133968,,,,,,,,
1557947501623,,,,3.7843403443719246,,,,,,
1557947501624,,,,,7.99208927154541,-7.929838180541992,0.5195576548576355,,271.34711570552344,23.71518421736125
1557947501627,2.0,,,,,,,,,
1557947501634,,16.542671510102235,,,,,,,,
1557947501676,,15.713707546052087,0.0,,,,,,,
1557947501700,,,,0.5544602909299634,8.090254783630371,-4.685595989227295,1.2474172115325928,1004.26416015625,326.6970528712446,25.356797181583357
1557947501714,,15.223540252203328,,,,,,,,
1557947501749,,,,1.2507727141985543,8.066311836242676,,-0.17478206753730774,,326.05628208935445,
1557947501750,2.0,,,,,-4.6999616622924805,,,328.6179991790811,25.717962390550888
1557947501754,,19.501114055549618,0.0,,,,,,,
1557947501795,,24.30835483581901,,,,,,,,
1557947501797,,,,,,,,1004.26416015625,,
1557947501803,,,,1.9738154565105277,,,,,,
1557947501804,,,,,7.436617374420166,-4.070267200469971,0.3304099142551422,,331.3668788199917,26.039930137593316
1557947501834,,27.7385151282322,,,,,,,,
1557947501835,,,0.0,,,,,,,
1557947501870,0.0,,,2.660657031722447,7.015225410461426,-3.6369035243988037,0.3184385597705841,,339.9592226449219,26.048155155746105
1557947501880,,25.1704096719361,,,,,,,,
1557947501892,,,,,,,,1004.26416015625,,
1557947501915,,16.251969205731875,,,,,,,,
1557947501931,,,,2.9380729603495066,7.400703430175781,-3.505218267440796,0.8499675393104553,,346.8529001308172,27.017327735840936
1557947501954,,10.997370009032368,0.0,,,,,,,
1557947501990,0.0,,,2.5118067416000014,8.224333763122559,-3.900273561477661,-0.04788549616932869,1004.25927734375,348.43513223507085,27.91734916227456
1557947501994,,11.326074239398945,,,,,,,,
1557947502034,,12.41812361533853,0.0,,,,,,,
1557947502047,,,,2.0288515455930174,8.39193344116211,,1.0008069276809692,,,
1557947502048,2.0,,,,,-4.745452880859375,,,353.1145174604482,28.157393485017426
1557947502074,,17.379162064476333,,,,,,,,
1557947502080,,,,,,,,1004.25927734375,,
1557947502097,2.0,,,,,,,,,
1557947502103,,,,2.1809679871054524,9.105426788330078,,1.3240339756011963,,356.9217438778756,28.453540780211117
1557947502104,,,,,9.447808265686035,-5.552323341369629,1.6209239959716797,,2.480291843309999,
1557947502114,,22.59001406371775,0.0,,,,,,,
1557947502154,,20.12466573414769,,,,,,,,
1557947502163,,,,3.72002587750366,10.5635404586792,-6.237085819244385,2.3344178199768066,,2.7300159390835006,29.373171583724314
1557947502164,,,,,11.090280532836914,-6.711152076721191,2.08062481880188,,1.9107701797468053,
1557947502180,,,,,,,,1004.253173828125,,
1557947502195,,18.243701183189593,0.0,,,,,,,
1557947502216,2.0,,,,,,,,,
1557947502223,,,,,10.99211597442627,-6.8931169509887695,1.9944308996200562,,1.9157677437851248,
1557947502234,,16.217225227515627,,,,,,,,
1557947502236,,,,3.9207323089027297,,,,,,
1557947502237,0.0,,,,10.146936416625977,-5.808510780334473,2.2123098373413086,,1.952582676854945,28.934000835124948
1557947502274,,16.420234941839396,,,,,,,,
1557947502283,,,,3.9414892424209556,9.986519813537598,,1.6233183145523071,,,
1557947502284,,,,,10.465374946594238,-3.6680290699005127,0.4788549542427063,1004.24951171875,1.6885768689703013,28.322415375873952
1557947502315,,17.656846017182307,0.0,,,,,,,
1557947502321,0.0,,,,,,,,,
1557947502344,,,,2.8279572326469467,,,,,,
1557947502345,,,,,10.3217191696167,-5.1309309005737305,0.42378664016723633,,358.6537253183609,27.379006859421295
1557947502354,,16.18332763322467,,,,,,,,
1557947502381,,,,,,,,1004.24951171875,,
1557947502394,,18.154022869095737,0.0,,,,,,,
1557947502403,,,,,9.627379417419434,-5.854001998901367,1.6137412786483765,,352.2430429520757,26.47632102181993
1557947502404,,,,1.5935377091780758,9.634561538696289,-6.01202392578125,1.6688095331192017,,350.9053708936962,
1557947502434,,19.9680492679883,,,,,,,,
1557947502436,0.0,,,,,,,,,
1557947502466,,,,1.3846337345733193,8.63375473022461,-5.638517379760742,2.142875909805298,,351.57677080514566,26.103930278342432
1557947502475,,25.691761092989125,0.0,,,,,,,
1557947502484,,,,,,,,1004.23974609375,,
1557947502514,,27.22812473129558,,,,,,,,
1557947502523,,,,2.606263092520416,7.043956279754639,,1.4030450582504272,,347.4269510635737,
1557947502524,,,,,6.328068256378174,,1.3168511390686035,,337.5573797930977,
1557947502543,0.0,,,,,,,,,
1557947502554,,23.759921001579603,,,,,,,,
1557947502584,,,,3.7607594313581556,5.736682415008545,-5.106987953186035,1.4557191133499146,1004.2412109375,337.7782561580249,25.761248907503575
1557947502598,,23.732196423411228,0.0,,,,,,,
1557947502634,,22.51767851948182,,,,,,,,
1557947502644,0.0,,,3.7547036236096534,6.227508544921875,-5.602602958679199,1.161223292350769,,325.8967596061942,25.30435523007096
1557947502674,,18.728464023140944,,,,,,,,
1557947502675,,,0.0,,,,,,,
1557947502680,,,,,,,,1004.2412109375,,
1557947502702,,,,,,,,,309.01729944996333,
1557947502703,,,,3.7175274289831,7.357606410980225,-6.981705188751221,1.051086664199829,,308.22808475174674,26.700066572213505
1557947502704,,,,,,-7.489291667938232,,,,
1557947502714,,25.48061261423989,,,,,,,,
1557947502749,0.0,,,,,,,,,
1557947502754,,30.93729721346536,0.0,,,,,,,
1557947502763,,,,4.303930863417208,9.433443069458008,,2.169213056564331,,320.40225490951246,26.940266307075316
1557947502764,,,,,10.005674362182617,-8.13095760345459,,,335.7769663349816,
1557947502780,,,,,,,,1004.233642578125,,
1557947502794,,25.294902993187428,,,,,,,,
1557947502823,,,,4.857986104518952,9.744698524475098,-9.244295120239258,1.0774236917495728,,318.96089374934303,26.98566150390964
1557947502824,,,,,,,,,324.7879466963343,
1557947502834,,22.186893893416247,,,,,,,,
1557947502863,0.0,,,,,,,,,
1557947502874,,21.354409666383333,0.0,,,,,,,
1557947502883,,,,1.815477096652684,8.952193260192871,,1.7573976516723633,1004.225830078125,342.1054217613962,27.72895836180977
1557947502884,,,,,8.830085754394531,-6.675238132476807,,,355.6920046031948,
1557947502914,,21.986103378524604,,,,,,,,
1557947502949,,,,1.5642858599185565,,,,,,
1557947502950,,,,,8.672063827514648,-4.40067720413208,0.8044763207435608,,350.3104622707618,28.214612050124657
1557947502954,,25.131624661878696,0.0,,,,,,,
1557947502976,0.0,,,,,,,,,
1557947502980,,,,,,,,1004.225830078125,,
1557947502994,,26.4028251696833,,,,,,,,
1557947503003,,,,1.9496845308071198,7.494080066680908,-4.0750555992126465,-0.15083931386470795,,350.43134978888185,29.86553770385005
1557947503004,,,,,6.474119186401367,-3.6416919231414795,0.2657645046710968,,355.56659421918374,
1557947503034,,19.484456801375657,0.0,,,,,,,
1557947503063,,,,2.86751244805851,6.263422966003418,,0.6296942830085754,,357.3536182331994,29.296286424224462
1557947503064,,,,,,-3.629720687866211,1.484450340270996,,,
1557947503074,,18.717132196644013,,,,,,,,
1557947503079,0.0,,,,,,,,,
1557947503080,,,,,,,,1004.22900390625,,
1557947503114,,19.362184316378418,,,,,,,,
1557947503123,,,,3.2865103562837663,6.32088565826416,-3.351984739303589,1.30009126663208,,3.2808803005985396,30.99074049473935
1557947503124,,,,,,-3.4908525943756104,,,4.310628007843434,
1557947503154,,17.128719869553322,0.0,,,,,,,
1557947503180,0.0,,,,,,,,,
1557947503183,,,,,7.278595447540283,-3.4573328495025635,0.5842030644416809,1004.226806640625,3.2101152719289985,31.595226282654775
1557947503184,,,,2.6822069074454613,7.221132755279541,-3.526766777038574,0.5387118458747864,,7.292129377732692,
1557947503194,,14.233480575955777,,,,,,,,
1557947503234,,15.07260611213329,0.0,,,,,,,
1557947503243,,,,2.1357652953353825,7.4222517013549805,-4.120546817779541,1.1037607192993164,,8.61728682200544,32.28345622938086
1557947503244,,,,,8.068706512451172,,0.9409499764442444,,11.957686458248531,
1557947503274,,18.132351894943724,,,,,,,,
1557947503281,0.0,,,,,,,,,
1557947503283,,,,,,,,1004.2216796875,,
1557947503304,,,,1.3810408282808522,,,,,,
1557947503305,,,,,8.01124382019043,-4.608979225158691,0.6416656374931335,,11.647762355790974,32.53222986369325
1557947503314,,12.62609811787954,0.0,,,,,,,
1557947503354,,17.67395685754224,,,,,,,,
1557947503362,,,,1.8908310454774917,,,,,,
1557947503363,,,,,9.404711723327637,,0.8116591572761536,,12.364690600700442,
1557947503364,,,,,,-5.09262228012085,,,,33.653207523771506
1557947503380,,,,,,,,1004.219482421875,,
1557947503381,0.0,,,,,,,,,
1557947503394,,18.673378550944683,,,,,,,,
1557947503423,,,,2.8005015979797023,10.446221351623535,-6.198777675628662,0.10295381397008896,,13.183359635939098,33.11363914343034
1557947503428,,,,,11.33449649810791,-6.876357078552246,0.2777358889579773,,15.989515535682187,
1557947503434,,17.781963844640273,0.0,,,,,,,
1557947503474,,16.913752266365996,,,,,,,,
1557947503480,0.0,,,,,,,,,
1557947503483,,,,3.948641077310253,11.442239761352539,,0.3232271075248718,,15.964356533874422,33.9122622235656
1557947503484,,,,,11.444633483886719,-6.883540153503418,0.6177229285240173,1004.21337890625,14.427418829101669,
1557947503514,,16.35764049286811,0.0,,,,,,,
1557947503545,,,,2.693405759548919,,,,,,
1557947503546,,,,,9.938634872436523,-5.21233606338501,1.362342357635498,,13.997342307633517,33.3997429570455
1557947503554,,16.408542369412128,,,,,,,,
1557947503580,,,,,,,,1004.210693359375,,
1557947503581,0.0,,,,,,,,,
1557947503594,,17.763131860358634,0.0,,,,,,,
1557947503603,,,,2.9921296514989777,9.869200706481934,-4.09181547164917,0.7446194887161255,,14.283556262161028,32.80315854065024
1557947503634,,15.16022438226292,,,,,,,,
1557947503663,,,,1.344674346951698,8.954587936401367,-4.970514297485352,0.31604427099227905,,11.03745336382542,31.88597651056025
1557947503664,,,,,,-5.233884811401367,,,6.640119092676457,
1557947503674,,19.1183073475935,,,,,,,,
1557947503680,,,,,,,,1004.2138671875,,
1557947503698,0.0,,,,,,,,,
1557947503714,,21.7976211635337,0.0,,,,,,,
1557947503723,,,,1.6808475480670875,9.806949615478516,-5.734288215637207,1.4868446588516235,,6.634644269169883,31.37523876258004
1557947503724,,,,,9.438231468200684,-5.856396198272705,1.132491946220398,,7.369757892744474,
1557947503754,,25.72016306283996,,,,,,,,
1557947503788,,,,1.884368063943981,9.179649353027344,-5.906675815582275,1.1995316743850708,1004.215576171875,7.588508361292497,31.126124036085276
1557947503794,,23.949120665171723,0.0,,,,,,,
1557947503808,0.0,,,,,,,,,
1557947503834,,24.98886198886972,,,,,,,,
1557947503845,,,,3.1450886297549188,7.494080066680908,,2.1859729290008545,,10.642876750568405,
1557947503846,,,,,,-5.717528343200684,,,11.437936383167255,30.771343660024186
1557947503874,,19.79040712681669,0.0,,,,,,,
1557947503882,,,,,,,,1004.211181640625,,
1557947503904,,,,2.989215859259259,7.309720993041992,-4.886714935302734,1.2210801839828491,,12.692574685580553,31.782277541779223
1557947503914,,22.14587064982875,,,,,,,,
1557947503915,0.0,,,,,,,,,
1557947503954,,20.694067205203034,,,,,,,,
1557947503963,,,,3.609150272655988,,,,,,
1557947503964,,,,,6.88114595413208,-4.498842239379883,0.14365649223327637,,4.092894383708142,31.681816525791138
1557947503981,,,,,,,,1004.20703125,,
1557947503997,,21.964230970965136,0.0,,,,,,,
1557947504022,,,,,,,,,25.812558703758384,32.14975586442818
1557947504023,,,,3.706862611622901,6.495667457580566,-3.7590115070343018,0.5746259689331055,,17.849961735397983,
1557947504024,,,,,6.411868095397949,-3.0934031009674072,-0.05985686928033829,,4.346664939678078,
1557947504026,0.0,,,,,,,,,
1557947504034,,16.416134883056777,,,,,,,,
1557947504073,,18.8599804845271,,,,,,,,
1557947504074,,,0.0,,,,,,,
1557947504083,,,,3.3188632809258696,6.395108222961426,,-0.026337023824453354,,,
1557947504084,,,,,6.557918548583984,-2.851581335067749,,1004.206298828125,4.560686782886307,32.58535727609725
1557947504114,,19.208482967898345,,,,,,,,
1557947504131,0.0,,,,,,,,,
1557947504145,,,,1.767842073913029,7.781393051147461,-3.000026226043701,0.2298503816127777,,1.8530057758321163,33.29264714659031
1557947504154,,17.787130405356844,0.0,,,,,,,
1557947504180,,,,,,,,1004.201904296875,,
1557947504193,,17.232853007785522,,,,,,,,
1557947504203,,,,1.744085125184307,9.534002304077148,-4.824463844299316,0.08619388937950134,,8.45769262185894,34.34338349264973
1557947504231,0.0,,,,,,,,,
1557947504234,,17.36739689582646,,,,,,,,
1557947504263,,,,,9.73272705078125,-5.528380393981934,1.4652961492538452,,30.750461039692027,34.32099556759382
1557947504264,,,,2.172955141491889,,,,,,
1557947504275,,18.05525515855733,0.0,,,,,,,
1557947504280,,,,,,,,1004.20068359375,,
1557947504314,,17.407743176166164,,,,,,,,
1557947504322,,,,1.858496771098676,,,,,,
1557947504323,,,,,9.431048393249512,-3.033546209335327,0.08140534162521362,,15.583411270653414,35.395372071232345
1557947504331,0.0,,,,,,,,,
1557947504354,,15.633572957368704,0.0,,,,,,,
1557947504383,,,,2.6372227165943696,11.09267520904541,,-0.49322059750556946,,18.21716978065075,
1557947504384,,,,,11.061549186706543,-4.336031913757324,0.14605076611042023,1004.19921875,16.655226753326644,37.14513684204299
1557947504394,,13.431941637888409,,,,,,,,
1557947504434,,14.139209949996737,0.0,,,,,,,
1557947504443,,,,1.9894619117421437,,,,,,
1557947504444,0.0,,,,10.137359619140625,-5.059102535247803,0.6895511150360107,,19.267842412748223,37.61507108307166
1557947504474,,12.559968191167503,,,,,,,,
1557947504487,,,,,,,,1004.193359375,,
1557947504505,,,,0.7443954952438832,8.947404861450195,-4.0487189292907715,0.29210153222084045,,25.102224152718918,39.00581395861205
1557947504514,,12.676771396110151,,,,,,,,
1557947504544,0.0,,,,,,,,,
1557947504553,,12.070796464826172,,,,,,,,
1557947504554,,,0.0,,,,,,,
1557947504562,,,,1.475949195364791,,,,,,
1557947504563,2.0,,,,7.55154275894165,-3.696760416030884,-0.12689656019210815,,28.047970336076844,39.721856656604885
1557947504580,,,,,,,,1004.189453125,,
1557947504594,,12.999206860393908,,,,,,,,
1557947504622,,,,1.4637999210591666,,,,,,
1557947504623,,,,,7.728719234466553,-3.2059340476989746,0.023942748084664345,,34.27699699119637,40.10594888559296
1557947504624,,,,,7.910684108734131,,0.19633053243160248,,,
1557947504634,,12.119730715884305,0.0,,,,,,,
1557947504646,2.0,,,,,,,,,
1557947504674,,17.330680029387953,,,,,,,,
1557947504683,,,,1.2577356350555544,,,0.699128270149231,,,
1557947504684,,,,,8.075888633728027,-3.4190244674682617,,1004.187255859375,41.29150564615105,41.06990031317353
1557947504714,,17.73643012636297,0.0,,,,,,,
1557947504743,5.0,,,0.7787902255866854,8.506858825683594,-3.043123245239258,0.1771763414144516,,41.57288894938807,41.212837146494216
1557947504754,,17.77120096037099,,,,,,,,
1557947504758,5.0,,,,,,,,,
1557947504779,,,,,,,,1004.181640625,,
1557947504794,,18.104100801246815,0.0,,,,,,,
1557947504803,,,,0.4900681415199571,9.249083518981934,,-0.25618740916252136,,39.64972283007131,41.47297850278342
1557947504804,,,,,,-3.217905282974243,,,,
1557947504834,,15.395781676393106,,,,,,,,
1557947504859,5.0,,,,,,,,,
1557947504862,,,,1.6186661157266684,10.108628273010254,-3.8859081268310547,-0.7278595566749573,,40.977702850018545,41.82361320703771
1557947504873,,14.665297009645538,,,,,,,,
1557947504879,,,,,,,,1004.1826171875,,
1557947504915,,15.269294599476009,0.0,,,,,,,
1557947504922,,,,1.9934166202028742,10.003279685974121,-5.52119779586792,0.05506832152605057,,52.461183788345124,43.027403985006664
1557947504953,,14.846064704201197,,,,,,,,
1557947504958,5.0,,,,,,,,,
1557947504983,,,,1.1981854289321865,10.000885963439941,-4.484476566314697,0.1484450399875641,1004.176513671875,47.768358885115276,41.87595816064335
1557947504994,,12.328319469118762,0.0,,,,,,,
1557947505034,,14.70863979803432,,,,,,,,
1557947505044,,,,1.0528174882398664,9.225140571594238,-4.10139274597168,-0.742225170135498,,49.291617428527786,41.42338418707938
1557947505058,5.0,,,,,,,,,
1557947505074,,14.020760845131928,0.0,,,,,,,
1557947505079,,,,,,,,1004.17724609375,,
1557947505102,,,,1.8867888822611727,9.143735885620117,-5.370358467102051,1.2067145109176636,,57.69069422070328,42.09610218080937
1557947505103,,,,,9.172467231750488,-5.669642925262451,1.8962656259536743,,61.84560074565957,
1557947505114,,13.8734340935196,,,,,,,,
1557947505154,,12.96799459695868,,,,,,,,
1557947505163,,,,2.920834279479682,9.624984741210938,,1.9609110355377197,,60.93257520835812,
1557947505164,5.0,,,,,-5.638517379760742,,,62.00350105889197,43.112661212393
1557947505182,,,,,,,,1004.181396484375,,
1557947505194,,13.35723918473504,0.0,,,,,,,
1557947505224,,,,1.6926696146913938,10.122993469238281,-4.348002910614014,1.0630580186843872,,61.5799132171353,42.79985448890979
1557947505234,,14.179553477853567,,,,,0.6320885419845581,,,
1557947505235,,,,,9.340065956115723,-4.15167236328125,,,66.27043634661482,
1557947505273,5.0,,,,,,,,,
1557947505274,,12.030260995292279,0.0,,,,,,,
1557947505294,0.0,,,1.2649350581631609,9.014444351196289,-3.99125599861145,1.1540404558181763,1004.18701171875,65.7546955925763,42.48533828070921
1557947505314,,12.963019575143047,,,,,,,,
1557947505350,,,,2.2566251701735687,7.630553722381592,,0.31125572323799133,,77.49682213439291,
1557947505351,,,,,,-3.9553420543670654,,,,42.971309990395355
1557947505354,,12.514671579840993,0.0,,,,,,,
1557947505381,0.0,,,,,,,1004.189453125,,
1557947505394,,14.915125635946492,,,,,,,,
1557947505403,,,,3.5827485575836433,6.198777675628662,-3.9218220710754395,0.4668835997581482,,90.64593349428628,42.37282978726945
1557947505434,,20.8122807084634,,,,,,,,
1557947505465,,,,3.9848955599741087,5.777385234832764,,0.6033572554588318,,100.33117588831021,
1557947505466,,,,,,-4.422225475311279,,,101.1268451152925,42.25554923321161
1557947505474,,19.631611744520203,0.0,,,,,,,
1557947505486,,,,,,,,1004.1923828125,,
1557947505488,0.0,,,,,,,,,
1557947505514,,18.77927385729971,,,,,,,,
1557947505522,,,,3.397518480936948,6.13173770904541,,1.6376839876174927,,97.4507280209649,41.669771937713634
1557947505523,,,,,7.477320194244385,-4.798126697540283,2.071047782897949,,96.99876074320684,
1557947505554,,17.941630851133105,0.0,,,,,,,
1557947505588,0.0,,,2.0635595201172188,9.598648071289062,-5.384724140167236,2.2434353828430176,1004.2001953125,94.75522118577607,40.93051077364872
1557947505595,,16.89995054991642,,,,,,,,
1557947505634,,17.200936454601212,0.0,,,,,,,
1557947505644,,,,4.731185997312102,11.609838485717773,-8.221940040588379,1.6161354780197144,,102.23543945909893,40.262502554589354
1557947505674,,19.01258103672193,,,,,,,,
1557947505679,,,,,,,,1004.189697265625,,
1557947505693,0.0,,,,,,,,,
1557947505702,,,,4.180979876495597,8.674457550048828,-6.2466630935668945,4.149278163909912,,89.0830427782148,39.639888272344564
1557947505714,,17.659505570453945,,,,,,,,
1557947505754,,16.853811743970184,0.0,,,,,,,
1557947505762,,,,2.9951732270800773,9.354432106018066,,2.667222023010254,,,
1557947505763,,,,,,-5.08065128326416,,,91.14359473759174,39.78922966919182
1557947505780,,,,,,,,1004.191162109375,,
1557947505793,0.0,,,,,,,,,
1557947505794,,17.374432781880873,,,,,,,,
1557947505822,,,,1.5408639966197866,,,,,,
1557947505823,,,,,7.3336639404296875,-5.5355634689331055,1.7047237157821655,,98.31450789435058,37.443076542360025
1557947505834,,15.053499686978487,0.0,,,,,,,
1557947505874,,13.497355348836663,,,,,,,,
1557947505882,,,,,7.4270405769348145,-4.704750061035156,1.8100717067718506,,98.96999431880755,37.95534671870822
1557947505883,,,,2.2025303680716486,7.0822649002075195,-4.613767623901367,1.5921927690505981,1004.1953125,100.78279482642063,
1557947505900,0.0,,,,,,,,,
1557947505914,,14.723019459851054,0.0,,,,,,,
1557947505945,,,,2.420497280920716,,,1.9609110355377197,,,
1557947505946,,,,,7.541965484619141,-4.776578426361084,2.1835787296295166,,99.0378522482116,36.547190805243204
1557947505954,,20.902572529348497,,,,,,,,
1557947505979,,,,,,,,1004.192626953125,,
1557947505994,,11.771404384441704,,,,,,,,
1557947506000,0.0,,,,,,,,,
1557947506002,,,,2.992122639483461,,,,,,
1557947506003,,,,,8.877970695495605,-4.549122333526611,1.0750293731689453,,100.09921583390741,36.51013509946354
1557947506034,,15.049421984824829,0.0,,,,,,,
1557947506062,,,,3.431206091094353,,,0.4980091452598572,,,
1557947506063,,,,,9.275420188903809,-4.407859802246094,,,100.22797172995132,37.02272180465438
1557947506074,,14.63195288931991,,,,,,,,
1557947506081,,,,,,,,1004.182861328125,,
1557947506101,0.0,,,,,,,,,
1557947506114,,15.224501481491885,0.0,,,,,,,
1557947506122,,,,,10.096656799316406,-4.95136022567749,0.6081457734107971,,98.42467884566287,
1557947506125,,,,3.548533854148511,,,0.483643501996994,,,
1557947506126,,,,,10.089473724365234,-5.439792156219482,0.8643332123756409,,101.11913383171952,36.60875256922008
1557947506154,,24.523854247186367,,,,,,,,
1557947506182,,,,3.5310057158919497,10.704802513122559,,1.1947431564331055,,,
1557947506183,,,,,,-6.548341751098633,,1004.18701171875,101.73960870649103,36.2380632156443
1557947506184,,,,,10.90113353729248,,1.4796618223190308,,102.72770485296007,
1557947506194,,23.555776962698772,0.0,,,,,,,
1557947506202,0.0,,,,,,,,,
1557947506234,,25.194015855780798,,,,,,,,
1557947506245,,,,4.038353627198904,11.085492134094238,,1.9848538637161255,,101.80921516432261,
1557947506246,,,,,,-7.127756118774414,,,,35.447814363193714
1557947506275,,25.6678276798861,,,,,,,,
1557947506285,,,,,,,,1004.182373046875,,
1557947506304,,,,3.3129496719033407,10.180456161499023,-5.14050817489624,2.3799092769622803,,93.02505913693096,35.574788433719206
1557947506305,0.0,,,,,,,,,
1557947506314,,23.870567249954348,0.0,,,,,,,
1557947506354,,28.436843196346075,,,,,,,,
1557947506364,,,,3.5792566367325827,10.929864883422852,,0.13168510794639587,,,
1557947506365,,,,,,-5.245856285095215,,,97.41439824476959,35.20466399453024
1557947506384,,,,,,,,1004.1826171875,,
1557947506394,,30.0037799663543,0.0,,,,,,,
1557947506405,0.0,,,,,,,,,
1557947506422,,,,2.9204515876120833,,,,,,
1557947506423,,,,,10.5419921875,-6.76143217086792,0.7206767201423645,,102.97128988933025,37.19307898933662
1557947506434,,32.49036599006874,,,,,,,,
1557947506474,,25.923158908855974,0.0,,,,,,,
1557947506482,,,,3.289378098956255,10.04398250579834,-6.883540153503418,0.6201171875,1004.186279296875,111.69045666676925,37.39809962013993
1557947506483,,,,,9.217958450317383,-6.780586242675781,1.2976969480514526,,116.96282312107465,
1557947506512,0.0,,,,,,,,,
1557947506514,,27.282161650664417,,,,,,,,
1557947506545,2.0,,,4.614594791762662,7.8580098152160645,,2.0327394008636475,,,
1557947506546,,,,,,-6.986494064331055,,,111.22502708615707,38.684554811883935
1557947506554,,26.866924961864235,,,,,,,,
1557947506580,,,,,,,,1004.171142578125,,
1557947506594,,24.54878549048305,0.0,,,,,,,
1557947506602,,,,5.548862498793566,5.758230686187744,-5.959350109100342,2.6480679512023926,,111.71644553656114,39.90216368144946
1557947506627,2.0,,,,,,,,,
1557947506634,,26.425564845010136,,,,,,,,
1557947506665,,,,6.114207822153289,5.456552505493164,-6.095823764801025,2.8060901165008545,,119.07128885747926,39.56202650291251
1557947506674,,22.233764305974482,0.0,,,,,,,
1557947506683,,,,,,,,1004.162841796875,,
1557947506714,,23.073165062018546,,,,,,,,
1557947506722,,,,,,,2.262589693069458,,,
1557947506723,4.0,,,,5.96174430847168,,2.049499273300171,,,
1557947506724,,,,6.080497847302055,,-6.699181079864502,,,127.9640722134308,41.76038829644866
1557947506732,4.0,,,,,,,,,
1557947506754,,24.52278553970039,0.0,,,,,,,
1557947506782,,,,5.314279415343693,7.130150318145752,-7.166064739227295,1.9417568445205688,1004.159423828125,132.85067641360305,42.671220982356765
1557947506783,,,,,8.894730567932129,-8.118986129760742,,,134.98444117069337,
1557947506794,,23.89713405802064,,,,,,,,
1557947506833,4.0,,,,,,,,,
1557947506834,,20.049157438965295,,,,,,,,
1557947506845,,,,5.466845894798534,9.392740249633789,-8.607418060302734,1.4820561408996582,,135.66217352127705,42.67961431127034
1557947506874,,17.975038586751882,0.0,,,,,,,
1557947506879,,,,,,,,1004.159423828125,,
1557947506902,,,,4.876581571248955,,,,,,
1557947506903,,,,,8.763046264648438,-9.103033065795898,0.7494080066680908,,138.77694468847798,42.72122139722358
1557947506904,,,,,,-7.719141960144043,,,,
1557947506920,,18.268017661667614,,,,,,,,
1557947506933,4.0,,,,,,,,,
1557947506954,,19.928884993334005,0.0,,,,,,,
1557947506966,,,,0.3021009155067631,7.771816253662109,-5.423032283782959,1.0319324731826782,,133.36216195978864,41.99528401028641
1557947506985,,,,,,,,1004.169189453125,,
1557947506994,,21.366432862408086,,,,,,,,
1557947507022,,,,1.7030489143384921,,,,,,
1557947507023,,,,,8.545166969299316,-5.3512043952941895,0.11971373856067657,,139.4176300930035,41.42299103116559
1557947507034,,20.083345821820572,0.0,,,,,,,
1557947507035,4.0,,,,,,,,,
1557947507074,,26.314247859893452,,,,,,,,
1557947507082,,,,,7.450983047485352,-5.078257083892822,0.5291347503662109,,133.6909536060547,40.55578104146795
1557947507083,5.0,,,2.210170545427268,7.960963726043701,-4.929811954498291,0.4956148862838745,1004.177734375,130.74746992285938,
1557947507114,,27.269631815463164,,,,,,,,
1557947507135,5.0,,,,,,,,,
1557947507149,,,,4.211370725410056,8.605023384094238,-4.345608711242676,-0.11013664305210114,,131.09817281598285,40.55946654945211
1557947507154,,21.22958484330569,0.0,,,,,,,
1557947507182,,,,,,,,1004.177734375,,
1557947507194,,19.46102321405265,,,,,,,,
1557947507202,,,,5.1033461345875,9.06233024597168,,0.2178790122270584,,115.03427822778653,38.99358221349561
1557947507203,,,,,9.550762176513672,-3.998438835144043,1.240234375,,102.23877259141386,
1557947507234,5.0,24.22021517749989,0.0,,,,,,,
1557947507262,0.0,,,5.2977211425479185,9.735121726989746,-4.5108137130737305,1.3958622217178345,,102.3857036208392,39.25834291782534
1557947507274,,13.311310684258235,,,,,,,,
1557947507279,,,,,,,,1004.164306640625,,
1557947507314,,8.874233596279709,0.0,,,,,,,
1557947507322,,,,3.964175373736358,9.095849990844727,-4.939388751983643,0.9768640995025635,,103.57104197015991,39.311905803514016
1557947507350,0.0,,,,,,,,,
1557947507354,,15.092543505407118,,,,,,,,
1557947507394,,22.086966211317755,,,,,,,,
1557947507395,,,,3.406936996195398,8.607418060302734,,1.6688095331192017,,103.795741533475,
1557947507396,,,,,,-5.109382629394531,,1004.168212890625,101.77916233197459,38.306415262591266
1557947507434,,20.69329074436466,0.0,,,,,,,
1557947507458,0.0,,,4.094296484427157,9.969759941101074,-6.038361072540283,2.7989072799682617,,103.24050179546629,38.30364470185153
1557947507474,,17.848654417466648,,,,,,,,
1557947507479,,,,,,,,1004.168212890625,,
1557947507502,,,,4.306770167056815,10.934653282165527,-7.652102470397949,2.391880512237549,,118.12082705333694,38.96892432586422
1557947507514,,16.70150098585388,0.0,,,,,,,
1557947507554,,16.699974791166998,,,,,,,,
1557947507560,0.0,,,,,,,,,
1557947507561,,,,2.8340605943080104,,,,,,
1557947507562,,,,,8.75107479095459,-4.247443675994873,1.8603515625,,105.39539915784866,39.15701988026709
1557947507578,,,,,,,,1004.154296875,,
1557947507597,,16.261412674872243,0.0,,,,,,,
1557947507622,,,,2.9697655797852045,9.703995704650879,,-0.011971374042332172,,130.3111027971656,40.18177019382959
1557947507623,,,,,,-4.85080099105835,,,,
1557947507634,,22.925059664803783,,,,,,,,
1557947507660,0.0,,,,,,,,,
1557947507674,,26.815319622432348,0.0,,,,,,,
1557947507682,,,,1.8472755475422078,9.395133972167969,-5.837242126464844,0.241821750998497,1004.150634765625,139.24130192939046,43.392402443384725
1557947507714,,25.025378178629502,,,,,,,,
1557947507745,,,,1.8550188342266754,,,1.4461419582366943,,,
1557947507746,,,,,9.344854354858398,-6.337645530700684,1.4437477588653564,,127.38921617212583,45.735824062321285
1557947507754,,23.76625573403495,,,,,,,,
1557947507763,0.0,,,,,,,,,
1557947507778,,,,,,,,1004.150634765625,,
1557947507794,,30.987235613990336,0.0,,,,,,,
1557947507802,2.0,,,1.576317913942889,8.588263511657715,-5.583448886871338,1.3479766845703125,,122.05724265693374,46.86744882519481
1557947507803,,,,,,-5.456552505493164,,,,
1557947507834,,25.297542787323653,,,,,,,,
1557947507862,,,,2.727072769117378,,,,,,
1557947507863,,,,,7.467742919921875,-5.420638084411621,1.5897984504699707,,121.41633868635475,48.64327693919303
1557947507875,,29.3521126957415,0.0,,,,,,,
1557947507884,,,,,,,,1004.13671875,,
1557947507886,2.0,,,,,,,,,
1557947507914,,25.463936597378407,,,,,,,,
1557947507925,,,,,6.148497581481934,,2.267378330230713,,116.72005087721573,50.335421575177406
1557947507926,,,,4.3234995008626935,,-5.514014720916748,,,,
1557947507954,,26.963965118165873,0.0,,,,,,,
1557947507987,7.0,,,4.914553085607073,5.293741703033447,-5.552323341369629,1.8100717067718506,1004.138916015625,119.29336562815303,49.5489199538403
1557947507994,,18.376843306246727,,,,,,,,
1557947508039,,20.469545806148062,,,,,,,,
1557947508054,,,,4.563627129945736,5.379935264587402,-5.6887969970703125,1.6951465606689453,,120.91791246186222,50.3474354473026
1557947508074,,25.44638850024016,0.0,,,,,,,
1557947508080,,,,,,,,1004.138916015625,,
1557947508101,7.0,,,,,,,,,
1557947508103,,,,3.393824320448306,7.470137596130371,-6.850020408630371,2.2410411834716797,,120.35540540257665,50.721650988749445
1557947508104,,,,,9.569916725158691,-7.884346961975098,2.142875909805298,,121.05507632077445,
1557947508116,,22.186819493907926,,,,,,,,
1557947508154,,21.77197742410651,0.0,,,,,,,
1557947508168,8.0,,,,10.767053604125977,,1.874717116355896,,,
1557947508169,,,,4.483099034839266,,-8.547560691833496,,,122.9855063462735,51.252996459174554
1557947508189,,,,,,,,1004.138671875,,
1557947508200,,15.217398152436566,,,,,,,,
1557947508212,8.0,,,,,,,,,
1557947508223,,,,5.395337331158468,11.753495216369629,-9.354432106018066,0.4022381603717804,,124.10785669106832,51.649825133645294
1557947508234,,14.09187181226188,0.0,,,,,,,
1557947508274,,14.95165041718861,,,,,,,,
1557947508282,,,,1.6694245250329511,,,,,,
1557947508283,,,,,9.189227104187012,,1.1588289737701416,,113.65373307198689,51.431795314878165
1557947508314,8.0,21.520195232000617,,,,,,,,
1557947508346,4.0,,,2.952411706752538,9.067118644714355,-4.288146018981934,1.2569942474365234,,106.12154388926939,51.141155333009635
1557947508354,,21.054136255322096,0.0,,,,,,,
1557947508379,,,,,,,,1004.128173828125,,
1557947508393,,21.229640490813427,,,,,,,,
1557947508402,,,,3.410949824438053,8.334470748901367,,-1.1731946468353271,,,
1557947508403,,,,,7.738296031951904,-4.309694766998291,-0.2011190801858902,,118.44598503896458,51.69984245143483
1557947508427,4.0,,,,,,,,,
1557947508434,,14.577806603887344,0.0,,,,,,,
1557947508464,,,,2.2408939045921348,7.223526954650879,-4.2594146728515625,0.31604427099227905,,109.98371533658812,52.55938402128492
1557947508465,,,,,,-4.118152618408203,,,,
1557947508474,,20.04413993114312,,,,,,,,
1557947508482,,,,,,,,1004.129638671875,,
1557947508513,,17.431247420109447,,,,,,,,
1557947508514,,,0.0,,,,,,,
1557947508522,,,,,,,1.252205729484558,,,
1557947508523,,,,,,,1.1971373558044434,,,
1557947508524,2.0,,,2.6746044829123146,6.785374641418457,-3.838022470474243,,,102.58933205056479,52.04701674363218
1557947508531,2.0,,,,,,,,,
1557947508554,,16.634904573011585,,,,,,,,
1557947508587,,,,2.9596738509325724,7.099024772644043,-3.22029972076416,0.8834874033927917,1004.125,101.57509677014207,51.83298459484057
1557947508594,,14.828282288510596,,,,,,,,
1557947508634,,15.269294599476009,0.0,,,,,,,
1557947508645,,,,2.1878199752028236,7.156487464904785,-3.7278859615325928,0.3184385597705841,,110.67565448064542,51.40130296232006
1557947508646,2.0,,,,,,,,,
1557947508674,,9.832856170448336,,,,,,,,
1557947508680,,,,,,,,1004.125,,
1557947508702,,,,1.431253378251932,,,,,,
1557947508703,0.0,,,,7.029590606689453,-4.522785186767578,0.6009629964828491,,115.89037413835592,51.32536149738173
1557947508715,,11.106355122906333,0.0,,,,,,,
1557947508746,0.0,,,,,,,,,
1557947508754,,9.848435571080952,,,,,,,,
1557947508766,,,,1.7754465562258646,6.627352714538574,-4.800520896911621,1.3120626211166382,,115.25594518711011,50.47740459488102
1557947508784,,,,,,,,1004.123291015625,,
1557947508799,,22.52007706074515,,,,,,,,
1557947508800,,,0.0,,,,,,,
1557947508822,,,,1.1356035247938834,,,,,,
1557947508823,,,,,7.154093265533447,,1.3072741031646729,,118.82160446218026,50.18371270550956
1557947508824,,,,,,-5.047131061553955,,,,
1557947508834,,22.192321617859633,,,,,,,,
1557947508852,0.0,,,,,,,,,
1557947508874,,20.695409944951308,,,,,,,,
1557947508883,,,,,,,0.5698373913764954,,,
1557947508884,,,,0.7522992018902678,8.243488311767578,-5.573871612548828,0.5004034638404846,1004.111328125,124.41701837365977,49.17515232404303
1557947508914,,18.391665353158363,0.0,,,,,,,
1557947508943,,,,1.430338226813755,9.06233024597168,,0.36871832609176636,,125.48665331844046,48.911520158073806
1557947508944,,,,,10.051165580749512,-5.71273946762085,0.5267404317855835,,123.2252733068976,
1557947508953,,18.491902179186486,,,,,,,,
1557947508970,0.0,,,,,,,,,
1557947508991,,,,,,,,1004.111328125,,
1557947508996,,17.726093977156186,0.0,,,,,,,
1557947509002,,,,2.9464062347225997,10.156514167785645,,0.17238777875900269,,126.91871176096032,
1557947509003,,,,,,-6.476513385772705,,,128.43993149290557,48.744525181516636
1557947509034,,15.493744877809736,,,,,,,,
1557947509064,,,,2.7565846938461593,9.921875,,1.2378400564193726,,117.88152454557638,
1557947509065,,,,,,-6.1508917808532715,,,100.5226875624482,48.13454822607633
1557947509074,,13.916411031653952,0.0,,,,,,,
1557947509087,0.0,,,,,,,1004.1015625,,
1557947509114,,14.58877558970691,,,,,,,,
1557947509123,,,,4.247529826651709,9.426259994506836,-3.004814863204956,1.4940274953842163,,99.42628510631022,47.7270111277946
1557947509154,,14.20346869088251,,,,,,,,
1557947509194,,14.028460153516145,0.0,,10.175667762756348,,0.8332076072692871,,106.47275904658062,
1557947509195,0.0,,,2.8627031479092127,,-6.095823764801025,,1004.110107421875,,46.29963116987076
1557947509234,,10.877339455337989,,,,,,,,
1557947509258,,,,2.116664582599405,9.622590065002441,-5.166844844818115,0.8834874033927917,,98.23880890777934,46.43592738546787
1557947509274,,12.65211027637486,0.0,,,,,,,
1557947509279,,,,,,,,1004.110107421875,,
1557947509300,0.0,,,,,,,,,
1557947509302,,,,2.058880143629371,,,,,,
1557947509303,,,,,10.1421480178833,-5.777385234832764,0.4860377907752991,,94.16716921899467,45.583971015536015
1557947509304,,,,,,-5.933012962341309,,,,
1557947509314,,13.65649257530686,,,,,,,,
1557947509354,,15.551520511358547,0.0,,,,,,,
1557947509367,,,,2.127409634671383,8.818114280700684,,1.6807808876037598,,89.17092682226536,
1557947509368,,,,,,-5.949772834777832,,,,44.20086445797637
1557947509386,,,,,,,,1004.113525390625,,
1557947509394,,23.498565619108845,,,,,,,,
1557947509404,0.0,,,,,,,,,
1557947509422,,,,,8.128562927246094,,2.631308078765869,,89.79614867850995,
1557947509423,2.0,,,3.8183618726014847,8.018425941467285,-6.507638931274414,2.451737403869629,,95.63211502236817,43.88281210348123
1557947509424,,,,,7.666468143463135,-6.93142557144165,2.5235655307769775,,96.57592422225883,
1557947509436,,19.063368745457833,,,,,,,,
1557947509474,,21.287405886876915,0.0,,,,,,,
1557947509492,,,,4.917500419830009,7.4868974685668945,-7.070293426513672,2.7510218620300293,1004.109375,95.52429365613034,43.34284809868516
1557947509513,2.0,,,,,,,,,
1557947509514,,21.978460559824015,,,,,,,,
1557947509552,,,,5.3029850740692055,,,2.5929996967315674,,,
1557947509553,,,,,7.637736797332764,-7.44140625,1.8220431804656982,,101.28151474904746,42.16506055342413
1557947509554,,27.122630548836536,0.0,,,,,,,
1557947509579,,,,,,,,1004.1005859375,,
1557947509594,,24.56648295121241,,,,,,,,
1557947509602,5.0,,,,7.685622215270996,-8.499675750732422,1.7143007516860962,,110.63705708164568,42.56571846118019
1557947509603,,,,5.889904190605456,8.032792091369629,-8.746285438537598,1.75021493434906,,113.63194476853454,
1557947509617,5.0,,,,,,,,,
1557947509634,,19.42401792380111,0.0,,,,,,,
1557947509670,,,,5.693756351404594,8.930644989013672,-9.21316909790039,0.8906702399253845,,118.7511715514591,41.27659766090215
1557947509674,,18.450065851593468,,,,,,,,
1557947509689,,,,,,,,1004.10302734375,,
1557947509714,,24.815604303770314,,,,,,,,
1557947509722,,,,,7.470137596130371,-7.07268762588501,0.10774236917495728,,122.48698449913257,
1557947509723,,,,2.9483277446491876,7.915472507476807,-6.268211364746094,0.241821750998497,,119.6679195418582,41.39434629639493
1557947509727,5.0,,,,,,,,,
1557947509754,,32.99748982984071,0.0,,,,,,,
1557947509786,,,,,8.80374813079834,,0.4189980924129486,,116.5840344900841,40.69698593024003
1557947509787,3.0,,,0.7996489171704114,,-5.0686798095703125,,1004.097412109375,,
1557947509801,,29.541234971024682,,,,,,,,
1557947509827,3.0,,,,,,,,,
1557947509834,,24.08588927119276,0.0,,,,,,,
1557947509844,,,,1.7814151620420273,8.099831581115723,-5.178816318511963,-0.9624984860420227,,125.6716148411644,40.5646585867409
1557947509874,,19.990116194290554,,,,,,,,
1557947509879,,,,,,,,1004.10546875,,
1557947509902,,,,1.7201988355902535,,,0.39984390139579773,,,
1557947509903,,,,,7.07268762588501,-4.537150859832764,0.6919454336166382,,116.03501022422012,39.206820276798716
1557947509914,,25.346318217453817,0.0,,,,,,,
1557947509932,3.0,,,,,,,,,
1557947509954,,21.76312781366989,,,,,,,,
1557947509964,,,,2.414114547217804,,,,,,
1557947509965,0.0,,,,7.106207847595215,-4.0487189292907715,0.5435003638267517,,116.34572918994235,40.02152817084699
1557947509984,,,,,,,,1004.10107421875,,
1557947509994,,17.55295686782852,,,,,,,,
1557947510022,,,,2.4167059094980776,,,,,,
1557947510023,,,,,7.130150318145752,-4.245048999786377,0.7925049662590027,,115.64302566775308,38.29020136987963
1557947510024,,,,,,,0.8978530764579773,,,
1557947510034,,17.817268879198554,0.0,,,,,,,
1557947510036,0.0,,,,,,,,,
1557947510074,,10.637272683877015,,,,,,,,
1557947510082,,,,,7.759844779968262,-4.563488006591797,0.7925049662590027,1004.09423828125,117.2529695570168,38.54335645446727
1557947510083,,,,2.292078004391769,7.987300872802734,-4.553910732269287,0.6727912425994873,,117.14129596408708,
1557947510114,,9.62292005752498,0.0,,,,,,,
1557947510144,,,,2.3906024607674206,,,,,119.91313699343999,37.56273043977505
1557947510145,2.0,,,,8.523618698120117,-4.834040641784668,0.766167938709259,,,
1557947510154,,17.129911918664916,,,,,,,,
1557947510180,,,,,,,,1004.084228515625,,
1557947510194,,18.52978329113349,0.0,,,,,,,
1557947510202,,,,2.4402441570195226,8.937828063964844,-5.5355634689331055,1.30009126663208,,118.45502820942568,37.30562374827613
1557947510203,,,,,10.16130256652832,-6.258634567260742,,,118.76211351450945,
1557947510234,,17.200373593191756,,,,,,,,
1557947510249,2.0,,,,,,,,,
1557947510263,,,,,10.508472442626953,,1.2737542390823364,,,
1557947510264,,,,3.5038292237387907,10.879584312438965,-6.6177754402160645,1.4437477588653564,,118.1428202624644,37.27970376351123
1557947510274,,15.541497745681871,0.0,,,,,,,
1557947510280,,,,,,,,1004.091064453125,,
1557947510314,,13.809082450419885,,,,,,,,
1557947510323,,,,4.21053435425242,11.176474571228027,-6.921848297119141,1.659232497215271,,119.20932698060523,36.54162487852839
1557947510354,,13.28157621141139,,,,,,,,
1557947510364,2.0,,,,,,,,,
1557947510386,,,,3.7318068096860717,,,0.6368771195411682,,,
1557947510387,,,,,9.897932052612305,-4.065478801727295,-0.10534809529781342,1004.091064453125,114.4847007165998,36.283831169365385
1557947510394,,16.690278831903964,0.0,,,,,,,
1557947510434,,14.259871967811977,,,,,,,,
1557947510454,,,,2.423908979249233,9.129369735717773,,-0.0766167938709259,,118.9175549596406,35.79069138887924
1557947510455,,,,,,-4.527573585510254,,,,
1557947510474,,19.396522361441487,0.0,,,,,,,
1557947510477,2.0,,,,,,,,,
1557947510480,,,,,,,,1004.092529296875,,
1557947510506,,,,1.0112552833183348,8.818114280700684,-5.9042816162109375,1.6879637241363525,,112.7694353103345,35.525167710211086
1557947510508,,,,,7.750267505645752,,2.0830190181732178,,,
1557947510514,,18.874839754031672,,,,,,,,
1557947510554,,23.920126399220607,0.0,,,,,,,
1557947510581,,,,1.2546984585370158,7.326480865478516,-5.33204984664917,1.831620216369629,1004.09765625,113.90306912763819,34.757870698466746
1557947510582,2.0,,,,,,,,,
1557947510600,,25.1780610167392,,,,,,,,
1557947510625,,,,2.085158184646618,6.93142557144165,,2.0949904918670654,,114.46184690363694,34.97608747370718
1557947510626,,,,,,-5.439792156219482,,,,
1557947510634,,26.756645767490728,,,,,,,,
1557947510675,,24.920433671899893,0.0,,,,,,,
1557947510688,0.0,,,1.7819717684948795,7.280989646911621,,0.7302538156509399,,123.54032261255361,34.993119323023606
1557947510689,0.0,,,,,-4.6329216957092285,,1004.09130859375,,
1557947510714,,26.740635161527194,,,,,,,,
1557947510742,,,,2.6990436767684964,6.914665699005127,-5.023188591003418,0.5219519138336182,,128.6699722641516,36.565014892287174
1557947510754,,23.935493392031507,0.0,,,,,,,
1557947510757,,,,,6.814105987548828,-5.487678050994873,0.8427847623825073,,131.31311886916313,
1557947510781,,,,,,,,1004.08544921875,,
1557947510794,,21.59845697164986,,,,,,,,
1557947510805,0.0,,,,,,,,,
1557947510806,,,,3.5591548808075455,7.096630573272705,-6.165257453918457,0.9720755815505981,,131.62458915569405,37.90865275044581
1557947510807,,,,,,-6.292154312133789,,,,
1557947510834,,20.39749000114954,0.0,,,,,,,
1557947510874,,24.653550267329997,,,,,,,,
1557947510879,,,,,6.651295185089111,,0.8475732803344727,,137.63340709687776,
1557947510880,,,,3.738235329851193,,-6.179623126983643,,1004.08203125,,39.56953296157282
1557947510914,,24.315470067395665,,,,,,,,
1557947510927,0.0,,,2.3546762730685824,8.906702041625977,-5.990475654602051,2.0949904918670654,,133.3766556212074,39.83069063438839
1557947510954,,20.812566580319643,0.0,,,,,,,
1557947510994,,17.475808989277606,,,,,,,,
1557947510995,,,,3.5301326908319424,10.039194107055664,-7.510839939117432,0.7278595566749573,1004.080322265625,144.8689133526174,41.076736548633484
1557947511034,,15.207389398199705,0.0,,,,,,,
1557947511044,,,,,11.399142265319824,,0.7733507752418518,,,
1557947511045,0.0,,,4.9237237273864105,10.929864883422852,-8.87318229675293,,,144.97661177545018,40.17263275191021
1557947511074,,16.166279100336922,,,,,,,,
1557947511094,,,,,,,,1004.086669921875,,
1557947511102,,,,1.8106235788304865,9.117398262023926,-5.6265459060668945,2.047105073928833,,133.72022779683738,40.11689681986994
1557947511113,,16.60988022504332,,,,,,,,
1557947511114,,,0.0,,,,,,,
1557947511154,,21.865716597928746,,,,,,,,
1557947511158,0.0,,,,,,,,,
1557947511164,,,,2.331050596325484,,,,,,
1557947511165,,,,,9.189227104187012,,1.9369683265686035,,134.36417803178617,40.19355141504672
1557947511180,,,,,,,,1004.0830078125,,
1557947511194,,21.59574695067844,,,,,,,,
1557947511222,,,,,,,-0.5004034638404846,,,
1557947511223,,,,1.9218604234592354,7.053533554077148,-4.3863115310668945,0.11971373856067657,,160.53994912013292,40.432429853947134
1557947511234,,23.621354781203557,0.0,,,,,,,
1557947511262,0.0,,,,,,,,,
1557947511274,,18.07543464702,,,,,,,,
1557947511282,,,,1.5935848374897847,8.140534400939941,,-0.07901106774806976,,,
1557947511283,,,,,8.018425941467285,,,1004.078369140625,157.99100448415422,41.711176415285706
1557947511284,,,,,,-4.278569221496582,,,,
1557947511314,,10.475706466750898,0.0,,,,,,,
1557947511347,,,,2.0587907439915223,7.829278469085693,,-0.7637736797332764,,,
1557947511348,,,,,7.506051540374756,-3.5554981231689453,,,164.38505875490497,41.91702961986593
1557947511354,,11.490200127675616,,,,,,,,
1557947511369,0.0,,,,,,,,,
1557947511391,,,,,,,,1004.073974609375,,
1557947511394,,10.172794682268208,0.0,,,,,,,
1557947511402,2.0,,,1.899674063884637,6.936213970184326,,-0.6225114464759827,,170.31911344543371,
1557947511403,,,,,6.603409767150879,-3.8212625980377197,-0.42378664016723633,,,42.939632915043575
1557947511434,,9.613511303347257,,,,,,,,
1557947511462,,,,2.2060456092110683,6.567495822906494,,-0.0885881707072258,,168.08012279399017,
1557947511463,,,,,,-4.082238674163818,,,,42.67826659383733
1557947511474,,8.633835624033004,,,,,,,,
1557947511479,2.0,,,,,,,1004.07373046875,,
1557947511516,,9.477937007561717,,,,,,,,
1557947511517,,,0.0,,,,,,,
1557947511531,,,,2.369887621826801,6.687209606170654,-3.723097324371338,0.5291347503662109,,165.65259160069758,43.38829867799813
1557947511554,,11.01708895889825,,,,,,,,
1557947511581,2.0,,,,,,,,,
1557947511587,5.0,,,1.4679205155175532,7.462954521179199,-3.902667999267578,-0.45251792669296265,1004.069580078125,181.4723788704233,42.92583591469747
1557947511594,,10.30422551269973,0.0,,,,,,,
1557947511634,,12.994638133637203,,,,,,,,
1557947511658,,,,1.2206896483631084,,,-1.2210801839828491,,,
1557947511659,,,,,8.176448822021484,-4.302511692047119,-1.3671308755874634,,188.37503634752989,44.06014535825408
1557947511674,,15.272439938401961,0.0,,,,,,,
1557947511684,,,,,,,,1004.06982421875,,
1557947511685,5.0,,,,,,,,,
1557947511709,,,,1.3802466429186075,8.880365371704102,-4.886714935302734,-1.503604531288147,,188.66057923597145,43.773609190274605
1557947511710,,,,,,-5.054314136505127,,,,
1557947511714,,15.260578162770093,,,,,,,,
1557947511754,,14.501548092240164,,,,,,,,
1557947511778,,,,1.5295437239663272,,,,,,
1557947511779,7.0,,,,9.577098846435547,,-0.6153286099433899,,179.48253621705783,42.598899579483096
1557947511780,,,,,,-5.5355634689331055,,1004.06396484375,,
1557947511794,,13.137787710582414,0.0,,,,,,,
1557947511800,7.0,,,,,,,,,
1557947511822,,,,4.774380604780243,11.49251937866211,-8.207573890686035,0.6009629964828491,,173.92497521395853,42.30782897508892
1557947511823,,,,,,-7.968146324157715,,,172.62244447885877,
1557947511834,,15.823159331322053,,,,,,,,
1557947511874,,15.748642612428004,0.0,,,,,,,
1557947511885,,,,1.696801441488054,,,,,,
1557947511886,,,,,9.086273193359375,-5.8803391456604,1.1684061288833618,1004.0654296875,170.11647539313776,42.48783770815715
1557947511907,7.0,,,,,,,,,
1557947511915,,16.88877671574271,,,,,,,,
1557947511951,6.0,,,1.0174438622287056,8.138139724731445,-4.053507328033447,-0.36871832609176636,,184.3316053400174,42.61689752118192
1557947511954,,14.995982550216684,0.0,,,,,,,
1557947511992,,,,,,,,1004.05712890625,,
1557947511994,,14.94629371614683,,,,,,,,
1557947512001,,,,,8.37038516998291,,0.6488484740257263,,,
1557947512002,,,,1.527073672872521,8.87318229675293,-5.7510480880737305,1.5538843870162964,,174.37900520884597,41.90083919909957
1557947512013,6.0,,,,,,,,,
1557947512034,,12.7599781708292,,,,,,,,
1557947512074,,13.964306529276476,0.0,,,,,,,
1557947512078,,,,2.6332027700707186,9.409500122070312,,1.8531687259674072,,165.79103953517375,
1557947512079,,,,,,-5.798933506011963,,1004.053955078125,161.68341840984144,42.061584257648825
1557947512119,,13.429147992679551,,,,,,,,
1557947512124,2.0,,,1.4218064176347267,9.617801666259766,,0.37590113282203674,,171.33050053697252,40.672653138922115
1557947512125,2.0,,,,,-4.496448040008545,,,,
1557947512154,,12.485876328440586,0.0,,,,,,,
1557947512194,,14.858871364622935,,1.689251238276135,9.071907043457031,,1.5778270959854126,,,
1557947512195,,,,,,-4.2594146728515625,,1004.05712890625,163.66045764623664,40.735978920354285
1557947512234,,12.709084728563534,0.0,,,,,,,
1557947512242,2.0,,,,,,,,184.13556525045965,38.81355419758087
1557947512243,,,,1.1863643837902833,8.341653823852539,-3.7135202884674072,0.7805336117744446,,184.81303805385483,
1557947512274,,11.739852656242402,,,,,,,,
1557947512291,,,,,,,,1004.0576171875,,
1557947512302,,,,2.4251342500315873,7.015225410461426,-3.196356773376465,0.7158881425857544,,184.18358148032485,37.92958799517073
1557947512303,,,,,6.58186149597168,-3.0886144638061523,0.6823683381080627,,190.59387794092186,
1557947512314,,11.959184697355177,,,,,,,,
1557947512354,,14.216356331189399,0.0,,,,,,,
1557947512359,2.0,,,,,,,,,
1557947512362,,,,2.8607327932293525,,,,,,
1557947512363,,,,,6.548341751098633,-3.098191499710083,0.9026415944099426,,188.29372977565004,36.10873487920087
1557947512389,,,,,,,,1004.056640625,,
1557947512397,,13.938337592519792,,,,,,,,
1557947512422,,,,2.212673839916445,7.2666239738464355,,0.8427847623825073,,193.58936668445767,
1557947512423,,,,,7.927443981170654,-4.094210147857666,1.022355318069458,,194.31836643495149,35.896901692740926
1557947512434,,18.676885761198307,0.0,,,,,,,
1557947512474,,19.557880721876984,,,,,,,,
1557947512478,2.0,,,,,,,,,
1557947512487,,,,2.367345622103927,,,1.453324794769287,,,
1557947512488,0.0,,,,8.360807418823242,-5.803721904754639,,1004.04931640625,193.4978148288228,34.75408889155799
1557947512514,,17.426530020112722,0.0,,,,,,,
1557947512541,,,,,11.19323444366455,,2.4900457859039307,,,
1557947512542,,,,,,-7.606611251831055,,,193.04281494707334,
1557947512554,,15.279453881291643,,4.548950141262851,11.863631248474121,-8.13095760345459,2.506805658340454,,193.72185869397765,32.25227422784387
1557947512579,,,,,,,,1004.051513671875,,
1557947512580,0.0,,,,,,,,,
1557947512594,,16.680561177218326,,,,,,,,
1557947512603,,,,6.28373798042151,12.4238920211792,-9.986519813537598,2.918621063232422,,204.6953908786818,32.338329005553156
1557947512634,,17.501269036268717,0.0,,,,,,,
1557947512674,,17.043139697893775,,,,,,,,
1557947512678,,,,5.081308347172308,10.273833274841309,,4.582642078399658,,184.9179497595063,
1557947512679,,,,,,-7.350423812866211,,,,31.192440055464903
1557947512681,,,,,,,,1004.052001953125,,
1557947512682,0.0,,,,,,,,,
1557947512714,,20.829969275681602,0.0,,,,,,,
1557947512725,,,,2.1272397299225094,,,,,,
1557947512726,,,,,9.129369735717773,-4.7574238777160645,1.2186858654022217,,230.58720368247452,31.680624914002436
1557947512755,,23.4721049568995,,,,,,,,
1557947512794,0.0,22.280396413627635,0.0,1.5847303183940646,7.534782886505127,-5.353598594665527,1.8555629253387451,1004.048583984375,233.12349880811036,31.572203227880657
1557947512834,,21.960391948489097,,,,,,,,
1557947512859,,,,3.1665800651621034,5.8731560707092285,,2.233858346939087,,240.84386653265085,31.754343898736277
1557947512860,,,,,,-3.9505534172058105,,,,
1557947512874,,17.82422243955367,,,,,,,,
1557947512880,,,,,,,,1004.044189453125,,
1557947512903,0.0,,,2.623309726568479,6.01202392578125,-4.072661399841309,1.5443072319030762,,265.02195755293064,31.73211540787933
1557947512914,,10.44981271440898,0.0,,,,,,,
1557947512954,,14.196167419745551,,,,,,,,
1557947512962,,,,2.471775084741644,5.96174430847168,-4.237866401672363,1.1660118103027344,,272.94227906542324,32.28591007123871
1557947512984,,,,,,,,1004.042236328125,,
1557947512994,,14.08101456466184,0.0,,,,,,,
1557947513004,0.0,,,,,,,,,
1557947513021,,,,1.7736816238224793,,,,,,
1557947513022,,,,,6.917059898376465,-4.462928295135498,1.2953026294708252,,289.1681106086514,32.747084735066586
1557947513023,,,,,7.563514232635498,,0.9744698405265808,,,
1557947513034,,10.327347647743386,,,,,,,,
1557947513074,,9.675500986161405,0.0,,,,,,,
1557947513091,,,,1.042264722167907,,,,,,
1557947513092,,,,,7.637736797332764,-5.150084972381592,0.9696813225746155,1004.03564453125,295.69709526645573,33.09259703791755
1557947513114,0.0,23.11590498523573,,,,,,,,
1557947513142,,,,2.1139413645253664,9.3233060836792,-6.009629726409912,1.3431881666183472,,302.9963681682866,32.85310789998029
1557947513154,,24.58396293063025,,,10.103839874267578,-6.112583637237549,1.3791022300720215,,309.22357457799234,
1557947513155,,,0.0,,,,,,,
1557947513179,,,,,,,,1004.033447265625,,
1557947513194,,22.632387489624307,,,,,,,,
1557947513202,,,,3.4661118381284326,10.503684043884277,-6.498061656951904,1.3862850666046143,,308.75828160116356,34.07006914660819
1557947513203,,,,,,-7.046350955963135,1.6185297966003418,,311.10193807144833,
1557947513204,,,,,11.229148864746094,,,,,
1557947513226,0.0,,,,,,,,,
1557947513234,,18.46968632853005,,,,,,,,
1557947513274,,16.95435015361701,0.0,5.266344332589214,12.033625602722168,-7.656890869140625,1.7573976516723633,,310.86280290332246,34.497546359440975
1557947513293,,,,,,,,1004.0263671875,,
1557947513314,,16.54807138567101,,,,,,,,
1557947513321,,,,4.629932350999213,9.514847755432129,-3.6081721782684326,0.03591412305831909,,317.37561708826684,33.186726449276804
1557947513322,,,,,,-3.7302801609039307,,,313.32783866534754,
1557947513337,0.0,,,,,,,,,
1557947513354,,26.44785696938106,0.0,,,,,,,
1557947513392,,,,3.783592822436909,9.881172180175781,-4.893897533416748,-0.6464542150497437,1004.019287109375,311.6767053202941,32.995308792419706
1557947513394,,19.987351606690268,,,,,,,,
1557947513434,,16.807999072327547,0.0,,,,,,,
1557947513441,,,,2.682982618107121,9.885960578918457,,2.1285102367401123,,,
1557947513442,,,,,9.119792938232422,-5.990475654602051,,,300.80506589762814,33.33711401157467
1557947513447,0.0,,,,,,,,,
1557947513474,,23.83845885406302,,,,,,,,
1557947513480,,,,,,,,1004.019287109375,,
1557947513501,,,,0.9233432973457193,8.911490440368652,,-0.04309694468975067,,,
1557947513502,,,,,8.186025619506836,-5.89231014251709,0.1532335877418518,,291.67665467568946,33.770832671251895
1557947513514,,18.55214133050709,,,,,,,,
1557947513548,0.0,,,,,,,,,
1557947513554,,19.051929634089785,0.0,,,,,,,
1557947513568,,,,1.8453322910988534,,,,,,
1557947513569,,,,,7.745479106903076,-5.937801361083984,0.5435003638267517,,274.1076459416108,33.90398050080301
1557947513588,,,,,,,,1004.016357421875,,
1557947513596,,16.162289475221737,,,,,,,,
1557947513621,,,,4.034900047832176,6.490879058837891,-5.983292579650879,1.9776710271835327,,248.13921890589813,36.2958832262333
1557947513622,,,,,6.759037971496582,-6.720729351043701,2.0614705085754395,,239.12078738997502,
1557947513634,,25.482229322346758,0.0,,,,,,,
1557947513648,0.0,,,,,,,,,
1557947513674,,27.144333599617912,,,,,,,,
1557947513693,,,,4.672857583100876,7.120573043823242,-6.948185443878174,1.934574007987976,1004.0234375,241.7710510521017,38.00634062580735
1557947513714,,19.974517682610223,0.0,,,,,,,
1557947513741,2.0,,,,6.998465061187744,,2.358360767364502,,228.4224298665523,37.46965136229146
1557947513742,,,,5.480961533440523,6.962551116943359,-7.563514232635498,2.4277946949005127,,221.58036982776207,
1557947513754,,17.090352394352276,,,,,,,,
1557947513757,2.0,,,,,,,,,
1557947513778,,,,,,,,1004.0234375,,
1557947513794,,27.95167623736464,,,,,,,,
1557947513802,,,,5.608088693861553,7.767027378082275,-8.365595817565918,1.939362645149231,,228.88285291850286,38.892405544067486
1557947513834,,22.23595703985478,0.0,,,,,,,
1557947513862,2.0,,,6.035323432656081,8.588263511657715,-9.648927688598633,0.6632141470909119,,230.96397057747072,38.8044622880201
1557947513874,,19.963731633085132,,,,,,,,
1557947513880,,,,,,,,1004.02197265625,,
1557947513914,,21.988159962703946,0.0,,,,,,,
1557947513921,,,,3.2847778247502815,,,1.4245935678482056,,,
1557947513922,,,,,7.216344356536865,-7.44140625,0.6871568560600281,,226.78864861708524,38.34826185001238
1557947513954,,23.120335967688547,,,,,,,,
1557947513961,2.0,,,,,,,,,
1557947513982,,,,1.3904362239649175,7.376760482788086,,0.07182824611663818,,,
1557947513983,,,,,7.474925994873047,-4.53236198425293,,1004.026611328125,256.99614376870716,39.333328453770584
1557947513994,,20.178185709555073,0.0,,,,,,,
1557947514034,,18.760973436689994,,,,,,,,
1557947514041,,,,1.5519157506944177,6.6177754402160645,,-0.014365648850798607,,259.53220666791117,
1557947514042,,,,,,,,,269.3130922008828,
1557947514071,2.0,,,,,,,,,
1557947514074,,22.572567037763772,,,,,,,,
1557947514094,,,,,,,,1004.026611328125,,
1557947514101,,,,,6.840443134307861,-4.58024787902832,0.3064671754837036,,272.94820766962283,41.80174607987732
1557947514102,,,,2.078142553269675,7.170853137969971,-4.453351020812988,-0.2537931203842163,,287.24453126288984,
1557947514116,,16.254536130460867,0.0,,,,,,,
1557947514154,,12.937683110304999,,,,,,,,
1557947514167,,,,3.040407172591606,7.635342597961426,,-0.7853221297264099,,289.9130656810463,
1557947514168,,,,,,-4.422225475311279,,,,41.90513476236421
1557947514184,2.0,,,,,,,1004.010986328125,,
1557947514193,,18.845455625546016,,,,,,,,
1557947514194,,,0.0,,,,,,,
1557947514220,,,,3.605897094806978,,,,,,
1557947514221,,,,,8.818114280700684,-4.635315895080566,0.1412622183561325,,297.1660230701154,43.91135062984591
1557947514234,,21.166111320303433,,,,,,,,
1557947514273,,20.15710375671798,,,,,,,,
1557947514274,,,0.0,,,,,,,
1557947514289,0.0,,,3.600595340245724,9.01205062866211,-4.778972625732422,0.3304099142551422,1004.006103515625,306.07592971031613,43.5031445290359
1557947514290,0.0,,,,,,,,,
1557947514314,,14.229856615372299,,,,,,,,
1557947514341,,,,2.909131334305699,8.734314918518066,,0.8667274713516235,,310.91507775613513,
1557947514342,,,,,8.794171333312988,-5.456552505493164,1.381496548652649,,310.0153403518639,45.01659515676481
1557947514354,,15.685342976224499,,,,,,,,
1557947514378,,,,,,,,1004.006103515625,,
1557947514394,,21.597178870574595,0.0,,,,,,,
1557947514397,0.0,,,,,,,,,
1557947514401,,,,3.1849112376445916,9.107821464538574,-5.916253089904785,1.659232497215271,,313.37783906516665,44.650965610020435
1557947514433,,20.718653155490312,,,,,,,,
1557947514461,,,,3.5848664988582533,10.75268840789795,-7.271412372589111,1.2785427570343018,,318.6610586900632,45.601261243242945
1557947514462,,,,,11.511672973632812,-7.597033977508545,1.721483588218689,,318.56570583415527,
1557947514474,,18.55955707074677,0.0,,,,,,,
1557947514478,,,,,,,,1003.994873046875,,
1557947514514,,16.4450334438504,,,,,,,,
1557947514515,0.0,,,,,,,,,
1557947514521,,,,6.211882973928848,12.50290298461914,,2.758204460144043,,322.29648151731584,
1557947514522,,,,,10.204399108886719,-6.059909343719482,1.8028889894485474,,325.53999150508776,46.75775023851882
1557947514554,,23.06349641657492,0.0,,,,,,,
1557947514582,,,,4.639763235102371,10.209187507629395,-3.2107224464416504,1.9633053541183472,1003.997314453125,325.3469771893324,45.64055913316887
1557947514583,,,,,,-5.171633720397949,,,,
1557947514594,,26.918725181901685,,,,,,,,
1557947514626,0.0,,,,,,,,,
1557947514634,,20.19629588077699,,,,,,,,
1557947514641,,,,2.351234286396221,9.881172180175781,-6.035966873168945,2.3775148391723633,,314.8374300002309,44.60224004859285
1557947514642,,,,,9.68484115600586,-6.5866498947143555,2.506805658340454,,300.08113414749846,
1557947514674,,25.949585010794735,0.0,,,,,,,
1557947514680,,,,,,,,1003.997314453125,,
1557947514701,,,,2.655076699020095,9.457385063171387,-7.216344356536865,1.903448462486267,,297.5609036267905,43.487748459499066
1557947514714,,28.463037933657603,,,,,,,,
1557947514730,0.0,,,,,,,,,
1557947514754,,28.91205167786203,0.0,,,,,,,
1557947514763,,,,2.2794560733954823,8.080677032470703,-6.284971237182617,0.2537931203842163,,277.0763330228435,42.60785836274388
1557947514779,,,,,,,,1003.992919921875,,
1557947514794,,32.42768553382995,,,,,,,,
1557947514821,,,,3.7894118315127208,,,,,,
1557947514822,,,,,6.517216205596924,-5.918647289276123,1.7573976516723633,,236.41995300723357,40.68535265847178
1557947514834,,26.897793521757475,0.0,,,,,,,
1557947514836,0.0,,,,,,,,,
1557947514874,,25.207092490385815,,,,,,,,
1557947514881,,,,4.972052286513018,5.672037124633789,-5.9713215827941895,2.504411458969116,1003.981201171875,194.80019529976084,39.49718534584637
1557947514882,,,,,5.6217570304870605,-5.76062536239624,2.5810282230377197,,181.72633896414277,
1557947514914,,22.945162128656726,,,,,,,,
1557947514947,0.0,,,4.842178385092966,6.387925148010254,-6.438204765319824,2.138087511062622,,192.99251743402533,37.7865698721711
1557947514954,,24.080475799830204,0.0,,,,,,,
1557947514984,,,,,,,,1003.981201171875,,
1557947514995,,20.361122044832598,,,,,,,,
1557947515002,2.0,,,5.842950286815661,6.797346115112305,,2.1931557655334473,,,
1557947515003,,,,,,-8.154899597167969,,,182.84086191214874,37.80080894670307
1557947515034,,27.36409150832275,0.0,,,,,,,
1557947515062,2.0,,,5.0034389113829905,8.628966331481934,-8.418270111083984,2.138087511062622,,184.52555539168907,37.78733098313885
1557947515074,,20.93348216437196,,,,,,,,
1557947515083,,,,,,,,1003.96923828125,,
1557947515114,,17.591365870691654,0.0,,,,,,,
1557947515122,,,,5.424356645679859,9.42147159576416,,0.572231650352478,,198.06708844015634,
1557947515123,,,,,,-9.737515449523926,,,197.40674575119954,36.8722830037798
1557947515154,,20.713162165095206,,,,,,,,
1557947515173,2.0,,,,,,,,,
1557947515182,,,,1.245717772203031,6.988888263702393,-5.446975231170654,0.8978530764579773,1003.966064453125,195.15293358925703,37.74176262140215
1557947515183,,,,,,-4.702355861663818,,,,
1557947515194,,21.330861012840614,,,,,,,,
1557947515234,,20.10855951915247,0.0,,,,,,,
1557947515242,,,,1.5869214993816125,7.178035736083984,-5.145296573638916,-0.011971374042332172,,242.54810801359577,38.21015405044315
1557947515246,,,,,7.5802741050720215,-5.57147741317749,0.10534809529781342,,,
1557947515247,,,,,,,,,238.83673348277256,
1557947515274,,19.8746409179405,,,,,,,,
1557947515278,2.0,,,,,,,,,
1557947515279,,,,,,,,1003.966064453125,,
1557947515302,,,,1.7678916358059842,6.859597206115723,-4.934600353240967,0.5339232683181763,,233.79873130945782,38.230217486019114
1557947515314,,16.241569316758074,0.0,,,,,,,
1557947515354,,13.49284136778358,,,,,,,,
1557947515367,,,,3.132859227314784,7.747873306274414,,-0.483643501996994,,274.6918593420787,
1557947515368,,,,,,-4.4796881675720215,,,,39.60022581151681
1557947515387,2.0,,,,,,,1003.966064453125,,
1557947515395,,13.412123842231106,0.0,,,,,,,
1557947515423,,,,4.012432566043434,,,,,,
1557947515424,,,,,7.903501033782959,-3.912245035171509,-0.18675343692302704,,292.8121053233124,40.864403897662044
1557947515425,,,,,8.008849143981934,-3.7661943435668945,0.13886794447898865,,304.4350792150581,
1557947515434,,21.2863807439373,,,,,,,,
1557947515474,,20.838197996446755,,,,,,,,
1557947515488,,,,4.527520058649075,9.143735885620117,-4.084632873535156,-0.26337021589279175,1003.966796875,304.7740819941334,41.089662755611336
1557947515489,2.0,,,,,,,,,
1557947515514,,13.468650318871966,0.0,,,,,,,
1557947515542,0.0,,,3.4664206717094213,8.765439987182617,,0.39505535364151,,309.345913511311,41.10670051553104
1557947515543,,,,,,-4.77178955078125,,,,
1557947515554,,11.670023542063195,,,,,,,,
1557947515558,,,,,9.158101081848145,-5.365570068359375,1.5610672235488892,,315.68205460808923,
1557947515579,,,,,,,,1003.966796875,,
1557947515600,0.0,,,,,,,,,
1557947515602,,19.519413046127575,0.0,3.343356385638049,9.239506721496582,,1.4772675037384033,,314.0917201919326,40.896414215824386
1557947515603,,,,,,-5.561900615692139,,,,
1557947515634,,24.24801105534754,,,,,,,,
1557947515665,,,,3.033601615555651,9.320911407470703,-5.911464691162109,1.7310607433319092,,321.3973690753537,41.4799211983958
1557947515674,,20.408395050444476,0.0,,,,,,,
1557947515697,,,,,,,,1003.962158203125,,
1557947515714,,18.006555242489885,,,,,,,,
1557947515721,0.0,,,,,,,,,
1557947515723,,,,4.318950528072813,11.207600593566895,-7.522811412811279,1.5897984504699707,,320.1074844355022,39.180965131465534
1557947515754,,15.852368548286098,0.0,,,,,,,
1557947515789,,,,,10.575511932373047,,1.6281068325042725,,,
1557947515790,,,,3.448138334557238,,-6.368771076202393,,1003.9619140625,331.5478685877133,38.90892428167765
1557947515800,,15.78349391350531,,,,,,,,
1557947515834,0.0,16.73489007259124,,,,,,,,
1557947515842,,,,2.5068580023132956,8.763046264648438,-4.189980983734131,1.0032011270523071,,335.90504433475036,36.8206941075666
1557947515874,,26.574228266465425,0.0,,,,,,,
1557947515880,,,,,,,,1003.9619140625,,
1557947515901,,,,1.92554792805241,,,,,,
1557947515902,,,,,9.71117877960205,-6.117372035980225,1.58022141456604,,331.0120795209135,35.71794457567511
1557947515914,,24.899760077801307,,,,,,,,
1557947515934,0.0,,,,,,,,,
1557947515954,,21.201802079195666,0.0,,,,,,,
1557947515968,,,,1.207302914759867,8.739103317260742,-6.225114345550537,1.4198049306869507,,324.1755314447835,35.3417811166724
1557947515987,,,,,,,,1003.96240234375,,
1557947515994,,24.564452226889394,,,,,,,,
1557947516022,,,,1.2594772127005032,8.54277229309082,-5.801327705383301,0.8188419938087463,,312.65534848495184,34.22257030472317
1557947516023,,,,,,-5.600208759307861,,,,
1557947516034,,15.578248934017429,0.0,,,,,,,
1557947516057,0.0,,,,,,,,,
1557947516074,,25.58769095826598,,,,,,,,
1557947516082,,,,2.708836337598498,7.091842174530029,,1.8292258977890015,,,
1557947516083,2.0,,,,6.94100284576416,-5.418243885040283,,1003.953857421875,349.02298014995085,34.05976429223236
1557947516114,,17.489391623403332,,,,,,,,
1557947516141,,,,,,,,,90.01323941108967,33.848241636205415
1557947516142,,,,3.6903639194738367,6.737489223480225,-5.933012962341309,2.0902018547058105,,109.11999693490498,
1557947516154,,17.188113274755295,0.0,,,,,,,
1557947516173,2.0,,,,,,,,,
1557947516194,,16.465137514266413,,,,,,,,
1557947516196,,,,,,,,1003.948486328125,,
1557947516202,,,,4.891810264407632,5.992869853973389,-6.356799602508545,2.102173328399658,,134.93139792159906,34.151175120832804
1557947516234,,12.63965997059085,0.0,,,,,,,
1557947516266,3.0,,,,6.608198642730713,-7.2977495193481445,2.887495517730713,,128.96022798312046,34.3100335727106
1557947516267,,,,5.396717818930603,,-7.271412372589111,,,,
1557947516274,,19.42682816384936,,,,,,,,
1557947516283,3.0,,,,,,,1003.945556640625,,
1557947516314,,28.676414957563626,0.0,,,,,,,
1557947516321,,,,,,,,,123.37754554425385,33.66983751958534
1557947516322,,,,4.9311409090882,7.199584484100342,-7.537177085876465,3.2322709560394287,,120.20557837294325,
1557947516354,,21.123724182854428,,,,,,,,
1557947516381,,,,,8.880365371704102,,1.52036452293396,,,
1557947516382,,,,4.427403313535826,8.715160369873047,-8.490097999572754,0.84517902135849,1003.942138671875,177.70339488167457,34.05405701949923
1557947516394,,20.847829140846166,,,,,,,,
1557947516399,3.0,,,,,,,,,
1557947516434,,24.684478080476385,0.0,,,,,,,
1557947516444,,,,2.362981301180825,7.925049781799316,,0.8810931444168091,,217.70313098313432,
1557947516445,,,,,,-7.197190284729004,,,259.7009669819239,33.19599984822662
1557947516474,,20.890916943400995,,,,,,,,
1557947516480,,,,,,,,1003.943115234375,,
1557947516500,3.0,,,,,,,,,
1557947516504,,,,0.9295971289556719,7.905895233154297,,-0.03830839693546295,,317.7526742663028,33.11619549060509
1557947516505,,,,,7.824490070343018,-4.936994552612305,-0.8858816623687744,,303.51433897908913,
1557947516514,,21.176094522421106,0.0,,,,,,,
1557947516554,,20.593384108677853,,,,,,,,
1557947516564,,,,2.1684205830188064,7.834067344665527,,-0.706311047077179,,303.4955252230203,33.55652558938943
1557947516565,,,,,,-5.243461608886719,,,,
1557947516583,,,,,,,,1003.9443359375,,
1557947516597,,18.405441924627226,0.0,,,,,,,
1557947516601,3.0,,,,,,,,,
1557947516623,,,,2.3580259799059937,,,,,,
1557947516624,2.0,,,,7.496474266052246,-4.438985347747803,0.0023942748084664345,,327.1960699071003,33.816480750254556
1557947516625,,,,,7.240286827087402,,0.19872480630874634,,,
1557947516634,,19.806345219373863,,,,,,,,
1557947516674,,25.67577794560179,,,,,,,,
1557947516686,,,,2.6831349254098464,7.180429935455322,-4.23068380355835,0.9577099084854126,1003.937255859375,345.9901388093915,33.46010035397749
1557947516710,2.0,,,,,,,,,
1557947516715,,20.866301614723515,,,,,,,,
1557947516716,,,0.0,,,,,,,
1557947516754,,22.431140119226896,,,,,,,,
1557947516763,,,,3.098319484138693,,,,,,
1557947516764,,,,,7.57309103012085,-4.058295726776123,0.30407288670539856,,345.13381664880586,33.81046607907187
1557947516788,,,,,,,,1003.939208984375,,
1557947516794,,15.409548089261326,0.0,,,,,,,
1557947516806,0.0,,,2.6936285535868687,8.458972930908203,-4.941783428192139,0.5315290093421936,,348.99718337922934,34.25689915642152
1557947516824,0.0,,,,,,,,,
1557947516834,,12.46764237792457,,,,,,,,
1557947516863,,,,2.583589438592562,,,,,,
1557947516864,,,,,8.171659469604492,-5.1620564460754395,1.314456820487976,,355.6985449362119,34.222728722497926
1557947516874,,11.411047804887547,0.0,,,,,,,
1557947516884,,,,,,,,1003.92236328125,,
1557947516914,,19.056429350012277,,,,,,,,
1557947516929,,,,3.125379463045232,8.696005821228027,,1.8052831888198853,,,
1557947516930,0.0,,,,,,,,,
1557947516954,,34.39226681167178,,,,,,,,
1557947516994,,29.737567761234498,0.0,,,,,,,
1557947516997,,,,3.1768327124297357,9.725543975830078,,1.8148603439331055,,,
1557947516998,2.0,,,,11.415902137756348,-6.122160911560059,,1003.912353515625,9.589493387144103,34.19373548557795
1557947517034,,25.50012615560556,,,,,,,,
1557947517046,2.0,,,4.680746273955933,11.439845085144043,-7.874769687652588,1.9369683265686035,,11.955380415630032,35.0684983646473
1557947517074,,23.237056641481896,0.0,,,,,,,
1557947517092,,,,,,,,1003.91259765625,,
1557947517104,,,,4.246047482067376,10.898738861083984,-6.850020408630371,2.82045578956604,,13.107074106872858,35.14345825520888
1557947517105,,,,,,-3.84041690826416,,,,
1557947517116,,20.838644542529753,,,,,,,,
1557947517154,,17.943844965051458,0.0,,,,,,,
1557947517155,2.0,,,,,,,,,
1557947517188,0.0,,,3.0897388078733945,9.124581336975098,-4.027170181274414,1.9800652265548706,1003.91162109375,9.762580625996009,33.89001543652242
1557947517196,,18.116616226960286,,,,,,,,
1557947517223,,,,2.0749433440781058,9.488511085510254,,0.6871568560600281,,359.08612346381665,
1557947517224,,,,,8.909096717834473,-6.316096782684326,0.572231650352478,,358.6726337365827,33.30843120036868
1557947517234,,16.215224710973946,,,,,,,,
1557947517254,0.0,,,,,,,,,
1557947517274,,15.803339553358759,0.0,,,,,,,
1557947517283,,,,,8.85163402557373,-5.95216703414917,0.7996878027915955,1003.909423828125,349.2930987636992,32.37765860738957
1557947517284,,,,1.050306475280716,8.59305191040039,-5.8731560707092285,0.6608198285102844,,336.10666639640726,
1557947517314,,22.05568597502313,,,,,,,,
1557947517350,,,,1.0840707555496665,7.9801177978515625,,0.5195576548576355,,335.51021158939943,
1557947517351,,,,,,-5.6217570304870605,,,,31.884002046130615
1557947517354,0.0,20.767762135064526,0.0,,,,,,,
1557947517383,,,,,,,,1003.90234375,,
1557947517394,,21.18768456742238,,,,,,,,
1557947517403,,,,1.8359378895860623,7.25225830078125,-5.0016398429870605,1.132491946220398,,322.92640254370946,32.45778117502563
1557947517434,,22.007090813654997,0.0,,,,,,,
1557947517455,0.0,,,,,,,,,
1557947517466,,,,3.6081777461267124,,,1.951333999633789,,,
1557947517467,,,,,6.2155375480651855,-5.257827281951904,2.099778890609741,,308.89607725257395,32.896035831283484
1557947517474,,16.645897484522322,,,,,,,,
1557947517485,,,,,,,,1003.909423828125,,
1557947517514,,21.338990056473413,,,,,,,,
1557947517524,,,,,6.138920783996582,,2.3032922744750977,,,
1557947517525,2.0,,,4.651496457728915,6.1820173263549805,-6.244268894195557,2.5570855140686035,,280.06693818112274,34.02724697598275
1557947517554,,19.510934546637188,0.0,,,,,,,
1557947517562,2.0,,,,,,,,,
1557947517583,,,,5.222432738766245,6.045543670654297,,3.287339210510254,,,
1557947517584,,,,,6.478907585144043,-6.519610404968262,,1003.910400390625,235.64371566844,34.67880511195451
1557947517594,,16.147609487825775,,,,,,,,
1557947517634,,16.827619262764067,0.0,,,,,,,
1557947517643,,,,3.8472995650821686,6.526793003082275,,2.729473352432251,,244.07184125515556,
1557947517644,,,,,,-6.014418125152588,,,240.17939840943535,34.32786596628632
1557947517662,2.0,,,,,,,,,
1557947517674,,26.918544994375676,,,,,,,,
1557947517681,,,,,,,,1003.909912109375,,
1557947517703,4.0,,,3.3396357242871653,8.30095100402832,-7.343240737915039,2.0686533451080322,,248.2271712518404,
1557947517704,,,,,,-8.121379852294922,,,251.14168810276573,35.87999865681831
1557947517714,,20.834989633987483,0.0,,,,,,,
1557947517754,,17.146518848643183,,,,,,,,
1557947517761,4.0,,,,,,,,,
1557947517763,,,,,9.890748977661133,,1.1875603199005127,,,
1557947517764,,,,4.873443746364024,,-9.390345573425293,,,249.6932098854811,35.02304291694764
1557947517782,,,,,,,,1003.899658203125,,
1557947517798,,18.48552151929171,,,,,,,,
1557947517823,,,,4.28899334850049,,,1.039115309715271,,,
1557947517824,,,,,9.929058074951172,-9.299363136291504,,,254.22123598441686,35.32823180428939
1557947517834,,20.64608653664799,0.0,,,,,,,
1557947517862,4.0,,,,,,,,,
1557947517874,,16.658457201348906,,,,,,,,
1557947517883,,,,1.2188358765692988,,,,,,
1557947517884,3.0,,,,8.212362289428711,-5.449369430541992,0.8715160489082336,1003.890380859375,282.53029371661205,34.85566127243393
1557947517885,,,,,8.432636260986328,-4.9465718269348145,0.5243461728096008,,302.89869646315543,
1557947517915,,19.27060612649341,,,,,,,,
1557947517916,,,0.0,,,,,,,
1557947517943,,,,2.6162699898850548,8.178842544555664,,-0.11731946468353271,,,
1557947517944,,,,,7.637736797332764,-4.671230316162109,,,302.9779676386626,36.17482544556997
1557947517946,,,,,7.015225410461426,-4.889109134674072,0.36871832609176636,,305.8641152988703,
1557947517954,,15.445039489031974,,,,,,,,
1557947517962,3.0,,,,,,,,,
1557947517982,,,,,,,,1003.8974609375,,
1557947518001,,15.59579593488772,0.0,,,,,,,
1557947518003,,,,2.239617446521324,6.612987041473389,,0.7685621976852417,,305.7419641957538,
1557947518004,,,,,6.447782039642334,-4.687990188598633,1.0439038276672363,,318.06413089245535,36.46504576227856
1557947518005,,,,,,-4.257020473480225,,,,
1557947518034,,15.750673480050184,,,,,,,,
1557947518064,0.0,,,,6.723123550415039,-3.6345090866088867,0.742225170135498,,321.01673629328724,36.70926144959784
1557947518065,0.0,,,3.479148742873265,,-3.624932050704956,,,,
1557947518074,,11.480056324759246,,,,,,,,
1557947518091,,,,,,,,1003.8935546875,,
1557947518114,,13.124738454413157,0.0,,,,,,,
1557947518123,,,,3.0958910382635856,,,0.14365649223327637,,,
1557947518124,,,,,7.625765323638916,-4.204346656799316,0.6632141470909119,,323.56681815576275,36.957514417318215
1557947518154,,14.043623878757487,,,,,,,,
1557947518169,0.0,,,,,,,,,
1557947518195,,13.59205014323027,0.0,,,,0.7015225291252136,,,
1557947518196,,,,2.6283323843435618,8.193208694458008,-4.78136682510376,0.8978530764579773,1003.8935546875,328.2353651515878,38.21100099921176
1557947518234,,12.47321811988833,,,,,,,,
1557947518247,,,,2.2321802844588206,7.774210453033447,,1.3072741031646729,,,
1557947518248,2.0,,,,,-4.9465718269348145,,,333.92796923986197,38.87046248908903
1557947518275,2.0,12.595055742307826,0.0,,,,,,,
1557947518281,,,,,,,,1003.893798828125,,
1557947518303,,,,2.041422913720916,7.644919395446777,-4.611373424530029,0.5099805593490601,,340.71387146329636,39.838598750833555
1557947518314,,17.341636907011555,,,,,,,,
1557947518354,,21.263066756669925,,,,,,,,
1557947518363,,,,1.5518966238210654,8.518829345703125,,0.6967339515686035,,344.0492406652158,
1557947518364,,,,,,-5.226701736450195,,,,39.66621460808067
1557947518382,,,,,,,,1003.8876953125,,
1557947518383,2.0,,,,,,,,,
1557947518394,,19.45368642647135,0.0,,,,,,,
1557947518423,0.0,,,2.2705101226466744,9.5435791015625,-6.969734191894531,1.4748733043670654,,346.7859583005355,40.51604172003978
1557947518424,,,,,10.654522895812988,,1.4964218139648438,,,
1557947518433,,17.007635461705334,,,,,,,,
1557947518473,,16.068223486929462,,,,,,,,
1557947518474,,,0.0,,,,,,,
1557947518483,,,,3.916709020399151,10.855642318725586,-8.123774528503418,1.7143007516860962,1003.8818359375,349.6773173950799,40.54384092008546
1557947518498,0.0,,,,,,,,,
1557947518514,,14.684846440235951,,,,,,,,
1557947518542,,,,,,,2.8013014793395996,,,
1557947518543,,,,,9.359220504760742,-5.789356708526611,,,351.0744863775458,
1557947518552,,,,2.4109616410041266,8.722343444824219,-4.683201313018799,2.1261160373687744,,351.1504602792311,41.35440992427639
1557947518554,,15.513365657884945,0.0,,,,,,,
1557947518580,,,,,,,,1003.87109375,,
1557947518594,,15.434204108731247,,,,,,,,
1557947518599,0.0,,,,,,,,,
1557947518605,,,,2.770777498605282,9.117398262023926,-4.283357620239258,-0.112530916929245,,348.57422562242357,39.05008922584298
1557947518634,,16.07448944192225,0.0,,,,,,,
1557947518669,,,,0.7816464753244173,7.999272346496582,,0.6296942830085754,,338.845505659238,
1557947518670,,,,,,-5.533169269561768,,,338.67778182643184,37.9356591127213
1557947518674,,14.82933509417429,,,,,,,,
1557947518690,,,,,,,,1003.862548828125,,
1557947518700,0.0,,,,,,,,,
1557947518714,,18.11752779642767,,,,,,,,
1557947518724,,,,1.163093060808765,8.2817964553833,-6.055120944976807,1.252205729484558,,332.46845343687863,36.48093585282091
1557947518754,,19.190632608766855,0.0,,,,,,,
1557947518793,2.0,,,1.5712084894758949,8.775016784667969,-6.114977836608887,1.0678465366363525,1003.869873046875,323.9441246357035,35.33984654728422
1557947518794,,24.62877396165398,,,,,,,,
1557947518812,2.0,,,,,,,,,
1557947518834,,17.883423594600256,0.0,,,,,,,
1557947518842,,,,,,,0.8332076072692871,,,
1557947518843,,,,,8.609811782836914,-5.856396198272705,,,317.3440684444905,
1557947518852,,,,1.722957662565923,8.159688949584961,-5.703162670135498,1.1205205917358398,,317.9550391110319,35.67573918018023
1557947518874,,17.80504268573743,,,,,,,,
1557947518891,,,,,,,,1003.862060546875,,
1557947518912,,,,2.9257706564290027,7.027196407318115,,2.013585090637207,,,
1557947518913,2.0,,,,6.596227169036865,-5.604997158050537,,,326.99462030771997,35.61943731607859
1557947518914,,18.652510643605144,0.0,,,,,,,
1557947518954,,20.56528911728943,,,,,,,,
1557947518971,6.0,,,3.2996162480413354,6.280182838439941,-5.123748302459717,1.8675343990325928,,339.65573684953074,35.61296950253921
1557947518991,,,,,,,,1003.862060546875,,
1557947518994,,19.600709588822887,,,,,,,,
1557947519022,,,,3.294804216510334,,,,,,
1557947519023,,,,,5.930618762969971,-4.517996788024902,0.8523618578910828,,316.58635799382057,36.90526718098753
1557947519024,,,,,6.086246490478516,-4.2953290939331055,0.42139238119125366,,309.2059868408795,
1557947519028,6.0,,,,,,,,,
1557947519035,,24.898676393419798,0.0,,,,,,,
1557947519073,,22.811802882059098,,,,,,,,
1557947519088,,,,,7.029590606689453,-4.189980983734131,0.33280420303344727,1003.86181640625,318.3731525561688,36.492875449495465
1557947519089,,,,2.2052201934000593,,,,,,
1557947519113,,22.062413343895273,,,,,,,,
1557947519114,,,0.0,,,,,,,
1557947519129,6.0,,,,,,,,,
1557947519143,7.0,,,,7.515628814697266,-4.589824676513672,0.21548473834991455,,315.6956808354834,37.23728662930275
1557947519148,,,,1.7867347199493988,7.776604652404785,-4.78136682510376,0.12210801243782043,,317.12430027775616,
1557947519154,,17.529364690805288,,,,,,,,
1557947519183,,,,,,,,1003.857421875,,
1557947519194,,17.448072559461508,0.0,,,,,,,
1557947519202,,,,1.364292502047559,8.035185813903809,-4.855589389801025,-0.07182824611663818,,315.92749404081906,37.02101988464881
1557947519203,,,,,8.497281074523926,-5.126142501831055,-0.4788549542427063,,311.04872748271936,
1557947519230,7.0,,,,,,,,,
1557947519233,,17.60647252520737,,,,,,,,
1557947519262,,,,2.5761763172819925,,,,,,
1557947519263,,,,,9.945817947387695,-6.481301784515381,-0.5889915823936462,,306.2984231225293,37.340154593341296
1557947519274,,15.68135178783641,,,,,,,,
1557947519279,,,,,,,,1003.859375,,
1557947519314,,15.596406761717677,0.0,,,,,,,
1557947519323,2.0,,,2.1246175982903,9.938634872436523,-6.416656494140625,-0.14365649223327637,,319.9547648207553,38.24396306760101
1557947519332,2.0,,,,,,,,,
1557947519353,,16.027733812742735,,,,,,,,
1557947519385,,,,1.739343280180892,7.896318435668945,-3.6704232692718506,-0.49322059750556946,1003.848388671875,338.58427482914703,38.22056528365075
1557947519394,,15.288642524203475,0.0,,,,,,,
1557947519433,,15.276824979989193,,,,,,,,
1557947519434,2.0,,,,,,,,,
1557947519442,,,,0.9568840692191265,,,,,,
1557947519443,,,,,8.308133125305176,-5.6217570304870605,0.45251792669296265,,355.1268243786228,39.01688704200514
1557947519445,,,,,,,1.922602653503418,,,
1557947519446,,,,,7.757450580596924,-6.816500186920166,,,26.886942337559503,
1557947519474,,17.69250858679222,0.0,,,,,,,
1557947519481,,,,,,,,1003.845947265625,,
1557947519504,,,,3.4505659606669705,7.860404014587402,-6.70157527923584,2.42061185836792,,28.8310344489459,39.934091020715464
1557947519514,,13.597322601445887,,,,,,,,
1557947519533,2.0,,,,,,,,,
1557947519554,,14.89874014704581,,,,,,,,
1557947519562,,,,2.1057888488338055,,,1.659232497215271,,,
1557947519563,,,,,7.676044940948486,-5.145296573638916,1.0630580186843872,,28.0498435154567,41.63692840985493
1557947519582,,,,,,,,1003.838623046875,,
1557947519594,,13.0993660079353,0.0,,,,,,,
1557947519623,,,,1.501691182762365,7.527599811553955,,0.43336373567581177,,,
1557947519624,,,,,8.0830717086792,-4.015198707580566,,,21.460328013680396,41.87578679542295
1557947519633,,11.2779140687951,,,,,,,,
1557947519640,2.0,,,,,,,,,
1557947519674,,10.85434591707479,0.0,,,,,,,
1557947519682,,,,,8.485309600830078,,-0.20590762794017792,,22.225917087558003,
1557947519683,4.0,,,1.143606756443614,8.447001457214355,-3.838022470474243,-0.5339232683181763,1003.837158203125,22.607524879128448,42.45974012035705
1557947519714,,9.60408212135063,,,,,,,,
1557947519742,,,,0.8629400347080277,,,0.05267404764890671,,,
1557947519743,,,,,8.121379852294922,-4.089421272277832,,,26.46081878807348,42.45562733002642
1557947519747,,,,,8.174054145812988,-4.134912490844727,0.3735068738460541,,32.57115041579647,
1557947519748,4.0,,,,,-4.027170181274414,,,,
1557947519754,,11.930393673696127,0.0,,,,,,,
1557947519782,,,,,,,,1003.837158203125,,
1557947519794,,15.821548721534107,,,,,,,,
1557947519802,,,,,,,,,35.90506137232808,41.75676578022638
1557947519803,,,,0.9052213882248235,8.566715240478516,-3.960130453109741,0.06703969836235046,,34.23902113941108,
1557947519834,,15.722550097019159,,,,,,,,
1557947519849,4.0,,,,,,,,,
1557947519863,8.0,,,0.8338288423472039,8.664880752563477,-4.558699131011963,-0.6249057054519653,,33.96456023289784,41.975863290475814
1557947519874,,13.759744904823224,0.0,,,,,,,
1557947519879,,,,,,,,1003.828369140625,,
1557947519914,,14.795191631264512,,,,,,,,
1557947519923,,,,,,,-0.4549122154712677,,,
1557947519924,,,,,9.004867553710938,-4.6401047706604,,,36.44658609048338,41.78658596949606
1557947519925,,,,,,,-0.2777358889579773,,,
1557947519926,,,,0.8265209858209539,9.265843391418457,-4.620950222015381,-0.23942747712135315,,39.22762396955375,
1557947519954,,15.597696002964916,,,,,,,,
1557947519955,,,0.0,,,,,,,
1557947519966,8.0,,,,,,,,,
1557947519985,,,,2.7051776303054718,10.59227180480957,-6.58186149597168,-0.1245022863149643,1003.8291015625,44.72373034559581,41.10884482926289
1557947519994,,14.46383573926818,,,,,,,,
1557947520033,,11.734406542818405,,,,,,,,
1557947520034,,,0.0,,,,,,,
1557947520042,,,,2.6630677634200635,,,,,,
1557947520043,7.0,,,,10.407912254333496,-6.668055534362793,1.0893950462341309,,49.3585498672993,40.485107589754
1557947520067,7.0,,,,,,,,,
1557947520074,,14.751224527577044,,,,,,,,
1557947520079,,,,,,,,1003.8291015625,,
1557947520104,,,,1.811054837471415,9.16288948059082,-3.7111258506774902,-0.41660380363464355,,39.89467731937009,39.916597429183355
1557947520117,,15.451850521017004,,,,,,,,
1557947520154,,14.94653018055984,0.0,,,,,,,
1557947520179,,,,1.6179873934656654,8.437424659729004,-6.055120944976807,-0.5985686779022217,,58.581637756418104,40.73257522320394
1557947520180,7.0,,,,,-6.560312747955322,,,,
1557947520181,,,,,,,,1003.848876953125,,
1557947520196,,11.241810150280578,,,,,,,,
1557947520230,5.0,,,3.1501072698826587,9.385557174682617,,2.413429021835327,,62.97842860064122,41.374251413300385
1557947520231,,,,,,-6.26102876663208,,,,
1557947520234,,16.417090037070494,0.0,,,,,,,
1557947520274,,12.113984478864833,,,,,,,,
1557947520298,,,,1.9164237891295406,8.755863189697266,-5.257827281951904,1.6209239959716797,1003.85302734375,68.21516195804668,41.88283531887671
1557947520299,5.0,,,,,-5.178816318511963,,,,
1557947520314,,14.57136656788095,0.0,,,,,,,
1557947520345,,,,2.689189468569251,7.3959150314331055,-5.490072250366211,1.831620216369629,,79.45896472820834,43.495820718510494
1557947520354,,12.202356180305014,,,,,,,,
1557947520386,,,,,,,,1003.85302734375,,
1557947520400,,14.681245220756832,,,,,,,,
1557947520406,,,,2.588628285197738,7.120573043823242,,2.0016138553619385,,80.67162383420907,44.01240158133324
1557947520407,5.0,,,,,-4.898686408996582,,,,
1557947520434,,12.94993296278147,0.0,,,,,,,
1557947520467,,,,2.553323177270968,6.5555243492126465,-4.6017961502075195,1.2019259929656982,,91.7804415758037,43.33329355843309
1557947520474,,14.366115246763131,,,,,,,,
1557947520486,,,,,,,,1003.84716796875,,
1557947520507,5.0,,,,,,,,,
1557947520516,,9.607586779205391,0.0,,,,,,,
1557947520525,,,,1.9175361720407245,6.964945316314697,,1.2785427570343018,,,
1557947520526,,,,,8.01124382019043,-4.4796881675720215,,,94.19485197570071,43.269817857105494
1557947520553,,13.140297288991052,,,,,,,,
1557947520586,,,,1.285400274698772,8.27221965789795,-5.435003757476807,1.8651400804519653,1003.849853515625,95.65013306139866,43.80558774646348
1557947520594,,13.914312242277141,0.0,,,,,,,
1557947520608,5.0,,,,,,,,,
1557947520634,,15.692119589931618,,,,,,,,
1557947520645,,,,2.472835010014896,9.826104164123535,-6.605803966522217,2.051893472671509,,96.60655079049718,43.93847978392113
1557947520674,,14.28178887077398,,,,,,,,
1557947520686,,,,,,,,1003.849853515625,,
1557947520706,,,,5.643512018705501,11.518856048583984,-9.284997940063477,3.035940408706665,,98.01026394796156,43.06683574865552
1557947520713,,12.828162543573363,,,,,,,,
1557947520714,,,0.0,,,,,,,
1557947520720,5.0,,,,,,,,,
1557947520753,,13.476950105098393,,,,,,,,
1557947520766,3.0,,,5.435608282643604,9.5220308303833,-9.976943016052246,3.8667538166046143,,97.82125895324896,43.69602707132112
1557947520788,,,,,,,,1003.8447265625,,
1557947520795,,12.327743309810561,0.0,,,,,,,
1557947520825,,,,2.779310600370185,7.814912796020508,-4.767001152038574,3.1005859375,,91.48084898823947,42.540211766607705
1557947520829,3.0,,,,,,,,,
1557947520834,,15.493466915999054,,,,,,,,
1557947520874,,14.205993196806615,0.0,,,,,,,
1557947520884,,,,2.09390053279117,7.937020778656006,,0.23224465548992157,,,
1557947520885,,,,,,-4.95136022567749,,1003.8486328125,107.6964352477126,41.360372607362336
1557947520916,,12.92213361321111,,,,,,,,
1557947520939,3.0,,,,,,,,,
1557947520944,,,,2.4482172571776153,6.138920783996582,,1.9896423816680908,,100.69519082012602,42.07750039271596
1557947520945,,,,,,-4.702355861663818,,,,
1557947520954,,12.452831947883649,,,,,,,,
1557947520984,,,,,,,,1003.8486328125,,
1557947521001,,8.580909463835711,0.0,,,,,,,
1557947521004,,,,2.9918475642718425,6.601015567779541,,1.702329397201538,,,
1557947521005,,,,,6.885934352874756,-3.933793544769287,1.2474172115325928,,98.41597035447114,40.30647044002086
1557947521033,,10.169954609260813,,,,,,,,
1557947521045,3.0,,,,,,,,,
1557947521066,,,,2.7103589234785104,7.084659099578857,-4.103786945343018,0.9696813225746155,,102.06804518292029,40.57056067654993
1557947521074,,11.25012589934199,0.0,,,,,,,
1557947521086,,,,,,,,1003.8408203125,,
1557947521113,,12.239560136767981,,,,,,,,
1557947521124,,,,2.543217659999158,8.028003692626953,,0.7565908432006836,,,
1557947521125,2.0,,,,8.224333763122559,-4.309694766998291,0.2537931203842163,,100.00706975181475,40.011182631367056
1557947521153,2.0,,,,,,,,,
1557947521154,,12.69375262915878,0.0,,,,,,,
1557947521184,,,,2.0629974690069073,8.248276710510254,,0.09577099233865738,,,
1557947521185,,,,,8.521224021911621,-4.795732498168945,0.9289786219596863,1003.836669921875,109.41901578657897,40.42789194789998
1557947521194,,10.871904609081042,,,,,,,,
1557947521234,,16.506389662199275,0.0,,,,,,,
