timestamp,AmbientLightSensor,DecibelSource,PitchSensor,LinearAccelerometerSensor,AccX,AccY,AccZ,BarometerSensor,CompassSensor,MagneticRotationSensor
1557947964607,,10.843817069986304,0.0,,,,,,,
1557947964646,,10.814322237584355,,,,,,,,
1557947964655,24.0,,,1.4642024963603566,0.9768640995025635,1.7573976516723633,7.9178667068481445,,93.85594481927387,39.53899908739579
1557947964667,,,,1.5922203951536245,2.949746608734131,1.0654523372650146,10.692831039428711,,88.7985312483379,40.151566251031454
1557947964669,,,,,,,,1004.501708984375,,
1557947964679,24.0,,,,,,,,,
1557947964686,,11.198122859709347,0.0,,,,,,,
1557947964721,,,,1.746545993346757,3.4812755584716797,-0.2729473412036896,8.7031888961792,,97.45841881397035,39.43789334425852
1557947964725,,7.788892190946068,,,,,,,,
1557947964765,,20.10221569906379,0.0,,,,,,,
1557947964769,,,,,,,,1004.498291015625,,
1557947964781,,,,5.442770322115097,1.7406377792358398,-0.5099805593490601,14.851686477661133,,94.88168213825884,40.03641288090811
1557947964792,24.0,,,,,,,,,
1557947964806,,18.122879406414775,,,,,,,,
1557947964842,,,,5.996579466788852,2.166818618774414,1.3910737037658691,3.4956412315368652,,65.68146913448459,40.01716623273493
1557947964845,,16.942419661863426,,,,,,,,
1557947964869,,,,,,,,1004.49365234375,,
1557947964885,,18.79532118238982,,,,,,,,
1557947964886,,,0.0,,,,,,,
1557947964901,,,,5.7988159549594425,0.9553156495094299,-2.0662591457366943,14.281848907470703,,104.1763879759198,40.82178623846114
1557947964908,24.0,,,,,,,,,
1557947964926,,33.919666145796214,,,,,,,,
1557947964962,,,,7.48350134351551,0.3543526828289032,1.7406377792358398,2.0973846912384033,,66.32249604846868,41.11050816963517
1557947964965,,24.523576234775,,,,,,,,
1557947964966,,,0.0,,,,,,,
1557947964969,,,,,,,,1004.48779296875,,
1557947964979,22.0,,,,,,,,,
1557947965006,,18.925299666898823,,,,,,,,
1557947965008,22.0,,,,,,,,,
1557947965021,,,,3.2503562145156084,0.2897072434425354,-0.8260248303413391,11.128589630126953,,106.6098546036011,41.63602231422198
1557947965046,,14.56620765440277,0.0,,,,,,,
1557947965069,,,,,,,,1004.484619140625,,
1557947965081,,,,5.839249290396038,,,,,,
1557947965082,,,,,-0.6847625970840454,1.8388030529022217,3.7614057064056396,,91.86480124224255,42.42818868956457
1557947965086,,16.112679931147863,,,,,,,,
1557947965109,22.0,,,,,,,,,
1557947965126,,17.354603908525142,,,,,,,,
1557947965141,,,,2.8417628125643306,,,,,,
1557947965142,,,,,-3.1724140644073486,2.226675510406494,12.031230926513672,,105.10497268415054,42.885228316935866
1557947965161,15.0,,,,,,,,,
1557947965166,,29.826280744931594,0.0,,,,,,,
1557947965170,,,,,,,,1004.48291015625,,
1557947965202,,,,1.9184020382365263,-2.889889717102051,2.5810282230377197,8.2817964553833,,102.88138410928536,42.50922606222016
1557947965206,,28.410716703111945,,,,,,,,
1557947965212,15.0,,,,,,,,,
1557947965246,,28.078884592775076,0.0,,,,,,,
1557947965262,,,,1.5730331158847368,-2.8108785152435303,1.6209239959716797,10.568328857421875,,108.53890493088781,42.251842744826696
1557947965269,,,,,,,,1004.47607421875,,
1557947965286,,27.809876145603802,,,,,,,,
1557947965321,,,,0.272659721461716,,,8.985713005065918,,112.73623376077904,
1557947965322,,,,,-3.16044282913208,0.6416656374931335,,,,42.35205262572216
1557947965324,15.0,,,,,,,,,
1557947965326,,28.869317403799755,0.0,,,,,,,
1557947965339,16.0,,,,,,,,,
1557947965366,,28.41119946039061,,,,,,,,
1557947965369,,,,,,,,1004.4697265625,,
1557947965381,,,,4.190763198428508,,,11.715187072753906,,,
1557947965382,,,,,-7.096630573272705,1.0750293731689453,,,112.30162199370199,42.68614999429148
1557947965406,,25.583479642245113,,,,,,,,
1557947965425,16.0,,,,,,,,,
1557947965446,,17.313164452873856,0.0,4.49415590365721,-7.319298267364502,1.6759923696517944,11.842082977294922,,110.82911517091728,41.56913145085244
1557947965469,,,,,,,,1004.474853515625,,
1557947965486,,12.42009832233801,,,,,,,,
1557947965502,,,,6.837457141358336,-6.799740314483643,-0.6368771195411682,15.110268592834473,,122.29888108939042,42.01718232419302
1557947965519,19.0,,,,,,,,,
1557947965526,,11.786768399298339,0.0,,,,,,,
1557947965531,19.0,,,,,,,,,
1557947965563,,,,2.3704923718677113,,,7.520417213439941,,,
1557947965564,,,,,-4.90108060836792,-2.9018609523773193,,,124.77404602195469,42.17287317677027
1557947965566,,15.269806786652522,,,,,,,,
1557947965569,,,,,,,,1004.4775390625,,
1557947965607,,19.72690237654639,,,,,,,,
1557947965608,,,0.0,,,,,,,
1557947965621,,,,4.029501365690737,,,5.944984436035156,,124.68428367588237,
1557947965622,,,,,-4.027170181274414,-3.438178539276123,,,129.68597656356934,42.759967695247205
1557947965643,19.0,,,,,,,,,
1557947965646,,22.51022632475,,,,,,,,
1557947965669,,,,,,,,1004.4755859375,,
1557947965681,,,,4.590610599170635,-3.663240432739258,-4.582642078399658,6.050332546234131,,134.38643078810207,42.666242184792964
1557947965686,,29.55132562457282,,,,,,,,
1557947965698,18.0,,,,,,,,,
1557947965726,,28.100632710636585,0.0,,,,,,,
1557947965747,,,,2.618029558596281,-6.086246490478516,-3.4956412315368652,5.933012962341309,,128.53765783955012,
1557947965748,18.0,,,,,,,,,41.75870688316263
1557947965766,,27.780244395482924,,,,,,,,
1557947965770,,,,,,,,1004.47509765625,,
1557947965803,,,,1.6271853058039942,-8.085466384887695,-0.18675343692302704,5.9401960372924805,,126.26080061934803,42.360679355609385
1557947965810,,28.476943425802666,0.0,,,,,,,
1557947965846,,28.471048395915197,,,,,,,,
1557947965866,18.0,,,3.9056200663950076,-8.549955368041992,1.6999350786209106,4.022381782531738,,129.76325332383888,40.52639084113161
1557947965870,,,,,,,,1004.480712890625,,
1557947965880,3.0,,,,,,,,,
1557947965886,,29.432089661722976,0.0,,,,,,,
1557947965925,,,,14.851694522854801,-8.159688949584961,3.9577362537384033,-8.51164722442627,,129.29112332765092,40.17007889253421
1557947965926,,24.7632859268109,,,,,,,,
1557947965967,3.0,28.060849462828354,,,,,,,,
1557947965971,,,,,,,,1004.4599609375,,
1557947965983,,,,,,,,,127.01138376761907,40.37255353946389
1557947965984,,,,13.41775723086557,-7.929838180541992,0.20351335406303406,0.18196488916873932,,146.59594034463348,
1557947966007,,29.470745568179012,0.0,,,,,,,
1557947966043,,,,,,,,,139.68404845176903,39.46891819153967
1557947966044,,,,4.182202988662662,-13.616240501403809,-2.9904491901397705,6.972128391265869,,170.26738159266003,
1557947966046,,19.58524337958299,,,,,,,,
1557947966061,1.0,,,,,,,,,
1557947966071,,,,,,,,1004.46875,,
1557947966075,1.0,,,,,,,,,
1557947966086,,22.000727568884653,0.0,,,,,,,
1557947966103,,,,4.279963167691618,-13.020066261291504,-2.9593236446380615,0.21069619059562683,,146.2164003928342,39.443735186104306
1557947966126,,18.780480280683086,,,,,,,,
1557947966163,,,,6.18878838582887,-12.091087341308594,-7.3959150314331055,4.970514297485352,,173.84215234008295,
1557947966164,,,,,,,,,,37.95932917485545
1557947966166,,25.77234452491318,,,,,,,,
1557947966167,,,0.0,,,,,,,
1557947966171,,,,,,,,1004.46630859375,,
1557947966184,1.0,,,,,,,,,
1557947966206,,28.138709599326518,,,,,,,,
1557947966226,,,,3.9012025495220652,-9.514847755432129,0.9385557174682617,1.2737542390823364,,143.68138934276232,38.53602464934391
1557947966246,,23.051928958378745,,,,,,,,
1557947966248,0.0,,,,,,,,,
1557947966271,,,,,,,,1004.4794921875,,
1557947966286,,29.621880719885194,0.0,,,,,,,
1557947966289,0.0,,,4.5472523116510075,-7.419857501983643,-6.70157527923584,3.3017048835754395,,139.55644685769485,38.584711215392
1557947966327,,29.0803798386038,,,,,,,,
1557947966356,,,,7.516257404201305,-2.537931203842163,-7.31211519241333,2.109356164932251,,192.52775038176264,38.04747418066438
1557947966366,,46.17303351168503,,,,,,,,
1557947966369,,,43.06640625,,,,,,,
1557947966372,,,,,,,,1004.478271484375,,
1557947966401,0.0,,,,,,,,,
1557947966405,,,,7.611379997658112,-6.979310989379883,,2.2769553661346436,,191.0354769915199,
1557947966406,,,,,,-0.84517902135849,,,,37.465472215267596
1557947966407,,38.16935401200546,43.06640625,,,,,,,
1557947966422,2.0,,,,,,,,,
1557947966446,,38.219054127391615,43.06640625,,,,,,,
1557947966450,,,40.771484375,,,,,,,
1557947966466,,,,2.6130153822973488,-8.56432056427002,-0.6296942830085754,3.842811107635498,,174.3153341854031,
1557947966467,,,,,,,,,,38.747645002606106
1557947966471,,,,,,,,1004.4658203125,,
1557947966486,,34.616941485715124,40.771484375,,,,,,,
1557947966508,2.0,,,,,,,,,
1557947966523,,,,5.315658527965985,-12.050385475158691,2.2458298206329346,-1.3647366762161255,,136.17527099210676,38.06105041933663
1557947966526,,37.7447409607687,40.771484375,,,,,,,
1557947966565,,33.963336974027655,,,,,,,,
1557947966566,,,40.771484375,,,,,,,
1557947966570,,,,,,,,1004.4677734375,,
1557947966583,,,,4.917263231885231,-1.6688095331192017,2.0064022541046143,6.6824212074279785,,157.0893102306858,38.15381899246015
1557947966600,0.0,,,,,,,,,
1557947966608,,38.302763168135634,,,,,,,,
1557947966609,0.0,,,,,,,,,
1557947966643,,,,9.48854699671592,,,,,,
1557947966644,,,,,-8.760651588439941,-4.383917331695557,0.03830839693546295,,229.25438788859486,37.16102697900196
1557947966646,,52.35135537950522,,,,,,,,
1557947966651,,,39.375,,,,,,,
1557947966671,,,,,,,,1004.47509765625,,
1557947966686,,46.88601214385531,39.375,,,,,,,
1557947966702,,,,,,,,,176.90479550353834,
1557947966703,,,,5.394864656944421,-9.747093200683594,-0.6249057054519653,1.7190892696380615,,184.53880595867895,38.20662187387516
1557947966716,0.0,,,,,,,,,
1557947966725,,49.033813607736,,,,,,,,
1557947966726,,,39.375,,,,,,,
1557947966729,,,53.349609375,,,,,,,
1557947966762,,,,,,,,,185.89683881097415,
1557947966763,,,,1.127256303066991,-13.118231773376465,0.4668835997581482,-1.9800652265548706,,168.36723662594082,37.67507881301099
1557947966766,,36.637233550594736,53.349609375,,,,,,,
1557947966771,,,,,,,,1004.47119140625,,
1557947966806,,37.387535117281516,53.349609375,,,,,,,
1557947966823,,,,,,,,,172.9851138634081,37.05829267641889
1557947966828,0.0,,,4.840908472221488,-12.196435928344727,3.409447431564331,5.923435688018799,,209.4855664681519,
1557947966846,,40.4140376395778,53.349609375,,,,,,,
1557947966850,,,43.06640625,,,,,,,
1557947966870,,,,,,,,1004.47216796875,,
1557947966882,,,,,,,,,212.91122052561508,
1557947966883,,,,5.587131442005292,-10.130176544189453,0.22506183385849,3.747040033340454,,202.2236137199459,36.76957372777795
1557947966885,,42.73395798542674,43.06640625,,,,,,,
1557947966926,,37.38347338296782,43.06640625,,,,,,,
1557947966941,0.0,,,,,,,,,
1557947966943,,,,,,,,,201.23472527153308,35.79008662744231
1557947966944,,,,1.5849003148545726,-8.205180168151855,-1.9441511631011963,3.3855044841766357,,199.3404269467435,
1557947966966,,25.124791317360092,,,,,,,,
1557947966971,,,,,,,,1004.466796875,,
1557947967003,,,,0.7425332719560117,,,,,,
1557947967004,,,,,-9.359220504760742,-0.14605076611042023,1.4485362768173218,,189.60231205835453,36.683558933445404
1557947967005,,22.64769651029907,,,,,,,,
1557947967008,,,430.3515625,,,,,,,
1557947967045,0.0,28.64232504693541,,,,,,,,
1557947967046,,,430.3515625,,,,,,,
1557947967064,,,,,,,,,199.46067925727073,36.49682131097248
1557947967065,,,,0.5052329644035584,-9.146129608154297,-0.023942748084664345,0.9840469360351562,,196.91733537641142,
1557947967071,,,,,,,,1004.46337890625,,
1557947967086,,28.45152552016284,430.3515625,,,,,,,
1557947967125,,22.22589667685603,,,,,,,,
1557947967126,,,430.3515625,,,,,,,
1557947967129,,,,1.7415220760333892,-8.267431259155273,-0.5387118458747864,0.8499675393104553,,195.5725394307276,35.90161445228414
1557947967149,0.0,,,,,,,,,
1557947967166,,21.04373287571237,,,,,,,,
1557947967174,,,,,,,,1004.46142578125,,
1557947967183,,,,1.9949557350621034,,,1.6376839876174927,,213.2994757987953,
1557947967184,,,,,-8.212362289428711,1.398256540298462,,,217.65482788532393,35.9974484354505
1557947967206,,18.65855020163358,0.0,,,,,,,
1557947967245,,20.414531115407964,,2.136300389480716,-7.771816253662109,,0.8571503758430481,,221.4914817459035,36.22633789390911
1557947967246,,,,,,0.41660380363464355,,,,
1557947967263,0.0,,,,,,,,,
1557947967272,,,,,,,,1004.46240234375,,
1557947967285,,23.066535370677414,,,,,,,,
1557947967286,,,0.0,,,,,,,
1557947967304,,,,1.9670716655341798,,,,,,
1557947967305,,,,,-8.212362289428711,-2.0614705085754395,1.6257126331329346,,207.10352433473156,35.71577728614448
1557947967326,,28.80499251278566,,,,,,,,
1557947967366,,21.374531537750823,0.0,,,,,,,
1557947967367,,,,1.7228401760602503,,,,,,
1557947967368,0.0,,,,-8.696005821228027,-2.0662591457366943,1.2378400564193726,,211.68035213528708,34.52294813927295
1557947967372,,,,,,,,1004.451904296875,,
1557947967406,,18.86832710740531,,,,,,,,
1557947967431,,,,1.445481656459876,,,0.4142095446586609,,204.61060091032527,
1557947967432,,,,,-9.51245403289795,-1.240234375,,,208.1100619919597,35.2012883085939
1557947967446,,14.965405740091322,,,,,,,,
1557947967475,0.0,,,,,,,1004.446533203125,,
1557947967484,,,,,,,,,211.12337752922923,
1557947967485,,,,1.270125781010689,,,,,,35.875634009694316
1557947967486,,11.71388109555079,0.0,,-10.479741096496582,-0.39266106486320496,0.26815879344940186,,214.456974297059,
1557947967526,,17.906887901413125,,,,,,,,
1557947967547,,,,1.5376492900785845,-11.154926300048828,,-0.337592750787735,,219.76008343281865,
1557947967548,,,,,,-0.35674694180488586,,,,35.40884625138624
1557947967566,,20.840633144741197,0.0,,,,,,,
1557947967573,,,,,,,,1004.44580078125,,
1557947967580,0.0,,,,,,,,,
1557947967605,,,,2.2396307533625874,-13.156539916992188,-2.7486274242401123,0.4597007632255554,,216.80672329608348,35.14612354809224
1557947967606,,32.38790606999727,,,,,,,,
1557947967646,,31.05104491623328,0.0,,,,,,,
1557947967664,,,,,,,,,214.35148885551735,35.4611661699243
1557947967665,,,,4.061378441561566,-12.450228691101074,-1.4676904678344727,4.240260601043701,,236.41847768637285,
1557947967672,,,,,,,,1004.4501953125,,
1557947967681,0.0,,,,,,,,,
1557947967686,,29.08595338350945,,,,,,,,
1557947967725,,,,4.838767362271268,-7.221132755279541,-1.75021493434906,5.870761871337891,,244.24700828660968,36.30456177325511
1557947967728,,23.553854856397948,,,,,,,,
1557947967766,,20.009910490689904,0.0,,,,,,,
1557947967777,,,,,,,,1004.44189453125,,
1557947967781,0.0,,,,,,,,,
1557947967785,,,,0.5621877174313408,-9.92426872253418,,2.418217658996582,,238.11270610999452,
1557947967786,,,,,,-0.7805336117744446,,,,36.76051648620792
1557947967805,,17.734273604411975,,,,,,,,
1557947967845,,,,1.0103839921420188,,,,,,
1557947967846,,21.328178168472732,0.0,,-8.82290267944336,0.5171633362770081,1.9369683265686035,,245.14407167182083,37.66824458717502
1557947967877,,,,,,,,1004.44970703125,,
1557947967881,0.0,,,,,,,,,
1557947967886,,23.11845125124975,,,,,,,,
1557947967905,,,,2.2973017912367393,,,,,,
1557947967906,,,,,-8.171659469604492,1.939362645149231,1.9058427810668945,,258.7027894762399,38.090597499949226
1557947967926,,16.543271827940412,0.0,,,,,,,
1557947967966,,19.06153562181285,,2.145036703831641,-8.054340362548828,2.418217658996582,1.6879637241363525,,252.85719256565199,39.01665603601924
1557947967982,0.0,,,,,,,1004.454345703125,,
1557947968006,,28.380633991424496,,,,,,,,
1557947968026,,,,1.8730244083270358,,,,,,
1557947968027,,,,,-7.889135360717773,0.4070267081260681,1.0271438360214233,,237.8144454093184,39.372665872851194
1557947968046,,30.66455239666589,0.0,,,,,,,
1557947968073,,,,,,,,1004.451171875,,
1557947968081,0.0,,,,,,,,,
1557947968085,,,,,-8.174054145812988,,1.2881197929382324,,241.99785431368116,
1557947968086,,18.274469359328876,,1.7295466392384524,,0.13407939672470093,,,,40.18539866592509
1557947968126,,12.402010347184035,0.0,,,,,,,
1557947968147,,,,0.9127363055750053,,,0.48843204975128174,,250.466564884445,
1557947968148,,,,,-9.165284156799316,1.3791022300720215,,,,39.0467707346391
1557947968166,,9.744720067244875,,,,,,,,
1557947968183,0.0,,,,,,,1004.446044921875,,
1557947968206,,14.853479450525013,0.0,1.5026737860336374,-9.66329288482666,2.329629421234131,0.26337021589279175,,260.7493395478183,39.06253218990869
1557947968246,,19.996354730040082,,,,,,,,
1557947968265,,,,,,,,,262.11565058938766,39.20388033824518
1557947968266,,,,1.4053185239004924,-10.216370582580566,2.2123098373413086,0.031125571578741074,,259.9239180168114,
1557947968273,,,,,,,,1004.43505859375,,
1557947968285,,21.251178092287052,,,,,,,,
1557947968299,0.0,,,,,,,,,
1557947968325,,16.045089057130145,,,,,,,,
1557947968326,,,0.0,,,,,,,
1557947968343,,,,1.3875656765352076,-9.974549293518066,2.1572415828704834,-0.2944957911968231,,259.72474970061387,39.8690398586445
1557947968365,,18.934843462184862,,,,,,,,
1557947968373,,,,,,,,1004.430419921875,,
1557947968386,,,,1.1416229689836996,-10.115811347961426,2.5882110595703125,0.924190104007721,,264.2001901731297,40.34088620840336
1557947968402,0.0,,,,,,,,,
1557947968406,,18.556537371631144,0.0,,,,,,,
1557947968445,,21.327742956418383,,1.2450567731973097,,,,,265.09907721884923,40.96989466062625
1557947968446,,,,,-11.1405611038208,4.616161823272705,1.1755889654159546,,275.5959236711891,
1557947968473,,,,,,,,1004.42919921875,,
1557947968486,,23.709641321406167,0.0,,,,,,,
1557947968505,,,,3.711309089126005,,,,,,
1557947968506,,,,,-9.354432106018066,-1.6448668241500854,2.1189332008361816,,242.52380620052884,40.43376621455109
1557947968526,0.0,26.07081613364524,,,,,,,,
1557947968566,,20.267458281058403,,2.7038723127587985,-8.176448822021484,0.16999350488185883,2.4038519859313965,,254.3027269714043,40.783276340866244
1557947968573,,,,,,,,1004.434326171875,,
1557947968606,,11.330426069567967,0.0,,,,,,,
1557947968626,,,,1.4806659335673196,-10.680859565734863,2.6121537685394287,0.5506832003593445,,269.400559603394,40.582449160536804
1557947968642,0.0,,,,,,,,,
1557947968646,,14.038380886387474,,,,,,,,
1557947968673,,,,,,,,1004.434326171875,,
1557947968686,,20.123421549871615,0.0,,,,,,,
1557947968691,,,,1.46031804134951,,,,,,
1557947968692,,,,,-9.919480323791504,0.7541965842247009,1.7310607433319092,,260.6942267514055,40.9908475577439
1557947968726,,16.429824062919927,,,,,,,,
1557947968758,0.0,,,1.9170584761924603,-8.791776657104492,-0.1005595400929451,1.4245935678482056,,259.26285815799173,40.9591286984524
1557947968766,,17.320562453218884,0.0,,,,,,,
1557947968773,,,,,,,,1004.42529296875,,
1557947968805,,,,1.2007250939605116,-9.165284156799316,,1.2186858654022217,,271.2013116573112,
1557947968806,,11.907762166143227,,,,0.3543526828289032,,,,41.557482433194906
1557947968846,,16.375317060616105,,,,,,,,
1557947968863,0.0,,,,,,,,,
1557947968865,,,,,,,,,287.97144097549767,41.62746310411991
1557947968866,,,,1.2103984001913044,-9.557945251464844,-0.12689656019210815,0.5602602958679199,,286.1154463515734,
1557947968873,,,,,,,,1004.419189453125,,
1557947968886,,10.231777768340642,0.0,,,,,,,
1557947968926,,13.242311122525534,,0.9344434502576553,-8.949799537658691,-0.8667274713516235,0.12929083406925201,,295.10533450695505,40.65175971711987
1557947968966,,18.004450838182564,0.0,,,,,,,
1557947968973,,,,,,,,1004.419189453125,,
1557947968975,0.0,,,,,,,,,
1557947968985,,,,1.7880545362864346,-9.646533012390137,,-0.9744698405265808,,295.25674614047585,40.76623521159051
1557947968986,,,,,,0.09577099233865738,,,,
1557947969006,,16.52577404109942,,,,,,,,
1557947969045,,,,0.8064222432756726,,,,,,
1557947969046,,15.885575209243152,0.0,,-10.127782821655273,0.30886146426200867,-0.8188419938087463,,309.14405410058043,41.17617505524132
1557947969073,,,,,,,,1004.415771484375,,
1557947969075,0.0,,,,,,,,,
1557947969086,,16.656968963136187,,,,,,,,
1557947969105,,,,1.1261592825914306,-9.66329288482666,0.7134938836097717,-1.4269877672195435,,319.5947079835635,40.520572525491055
1557947969126,,16.81374574526419,,,,,,,,
1557947969165,,,,5.000062942108712,-13.328927993774414,-1.209108829498291,2.3727264404296875,,297.4429872409594,40.26487203513505
1557947969166,,23.768644385025585,0.0,,,,,,,
1557947969173,,,,,,,,1004.423828125,,
1557947969182,0.0,,,,,,,,,
1557947969206,,22.77655983040073,,,,,,,,
1557947969230,,,,3.7568320028166946,-7.905895233154297,1.242628574371338,3.6512691974639893,,301.3088264998624,40.9541638206279
1557947969246,,25.13399567717745,,,,,,,,
1557947969247,,,0.0,,,,,,,
1557947969277,,,,,,,,1004.423828125,,
1557947969285,,,,3.2405063177022755,,,3.318464994430542,,310.9398918333898,40.29753745294021
1557947969286,,17.53675102262664,,,-8.554743766784668,1.0917893648147583,,,,
1557947969301,0.0,,,,,,,,,
1557947969326,,23.2062075444706,0.0,,,,,,,
1557947969349,,,,1.9456640944580168,-10.944230079650879,-0.26815879344940186,0.8643332123756409,,322.2584749296793,41.15693758201358
1557947969366,,21.466570405372618,,,,,,,,
1557947969374,,,,,,,,1004.42333984375,,
1557947969405,,,,1.020917395938792,,,1.5347301959991455,,,
1557947969406,,21.67588571031732,,,-8.636149406433105,1.07024085521698,,,329.3925597064334,40.08942954160198
1557947969413,0.0,,,,,,,,,
1557947969446,,16.715946926578226,0.0,,,,,,,
1557947969477,,,,0.4198610660969939,-9.299363136291504,,1.7861289978027344,,329.2988324355479,
1557947969478,,,,,,1.472478985786438,,1004.431884765625,,40.46358173726738
1557947969486,,17.03159727185939,,,,,,,,
1557947969522,0.0,,,,,,,,,
1557947969528,,16.87383340866431,0.0,,,,,,,
1557947969544,,,,0.3597328436182281,-9.419076919555664,1.6879637241363525,0.8236305117607117,,335.8386839243218,40.18033736440966
1557947969566,,16.983540710574793,,,,,,,,
1557947969573,,,,,,,,1004.431884765625,,
1557947969588,,,,0.4638780291444789,-9.399923324584961,1.381496548652649,1.2857255935668945,,340.0981965039641,39.82341351681405
1557947969606,,14.608160527929073,0.0,,,,,,,
1557947969627,0.0,,,,,,,,,
1557947969646,,16.708546101506506,,0.5681634939013194,-9.107821464538574,,1.52036452293396,,345.8028405081978,40.225289289763126
1557947969647,,,,,,1.4245935678482056,,,,
1557947969673,,,,,,,,1004.4306640625,,
1557947969686,,16.84496270350044,,,,,,,,
1557947969705,,,,1.385152528674984,-9.766246795654297,,0.876304566860199,,350.9438487643855,
1557947969706,,,,,,2.0878076553344727,,,,40.809087573871906
1557947969726,,15.934882545833664,0.0,,,,,,,
1557947969730,0.0,,,,,,,,,
1557947969766,,20.099040310681197,,2.301459583226766,-11.458999633789062,1.6257126331329346,0.36871832609176636,,358.6292452800453,
1557947969767,,,,,,,,,,40.95187884848112
1557947969773,,,,,,,,1004.4384765625,,
1557947969806,,18.264090632936714,0.0,,,,,,,
1557947969842,,,,4.662283860174826,,,2.942563772201538,,,
1557947969843,0.0,,,,-13.824542999267578,2.3320236206054688,,,342.8496152676987,39.74491693123542
1557947969846,,23.078912313114067,,,,,,,,
1557947969873,,,,,,,,1004.4384765625,,
1557947969885,,,,5.464755446816066,-14.949851989746094,1.283331274986267,2.6767992973327637,,342.33149590028177,39.333695279571685
1557947969886,,28.00916484596631,0.0,,,,,,,
1557947969926,,27.352258209004525,,,,,,,,
1557947969944,0.0,,,,,,,,,
1557947969946,,,,5.479527605398143,,,,,346.3350292115313,40.24712045414417
1557947969947,,,,,-7.577879905700684,-1.7741576433181763,4.242654800415039,,308.37610861143924,
1557947969966,,23.751159302149883,,,,,,,,
1557947969986,,,,,,,,1004.437255859375,,
1557947970006,,22.760995195911637,0.0,,-8.66248607635498,-1.3767080307006836,3.5459210872650146,,319.3373771914887,40.41386319771395
1557947970007,,,,2.5554173911335334,,,,,,
1557947970046,,16.919060511005647,,,,,,,,
1557947970049,0.0,,,,,,,,,
1557947970072,,,,2.3002213993489735,-9.265843391418457,-2.1189332008361816,2.298503875732422,,331.6105628941048,39.52611158240396
1557947970074,,,,,,,,1004.432861328125,,
1557947970086,,21.7575465710955,0.0,,,,,,,
1557947970126,,20.218078721773523,,,,,,,,
1557947970139,,,,1.9080497500453366,-8.767834663391113,-0.8858816623687744,0.6201171875,,342.78157121563976,40.58134099102998
1557947970160,0.0,,,,,,,,,
1557947970166,,21.552413353381894,0.0,,,,,,,
1557947970185,,,,,,,,1004.432861328125,,
1557947970186,,,,1.4934198373762635,-8.384750366210938,-0.031125571578741074,1.1636176109313965,,6.910299605014188,40.488487621466646
1557947970206,,19.834212009658533,,,,,,,,
1557947970246,,23.516898413915904,0.0,2.7819269620850022,-6.742278099060059,-0.6560313105583191,2.0279507637023926,,346.46293474902353,40.50857650787016
1557947970265,0.0,,,,,,,,,
1557947970286,,26.34929446188417,,,,,,,,
1557947970288,,,,,,,,1004.4296875,,
1557947970307,,,,2.792642470288295,-7.096630573272705,-3.217905282974243,1.8172545433044434,,348.3685549661362,40.55458498344891
1557947970326,,25.15353362165378,,,,,,,,
1557947970366,,26.392825934182873,0.0,,,,,,,
1557947970373,0.0,,,2.5498144119644133,-8.772623062133789,-2.944957971572876,1.429382085800171,,6.745143069562346,40.036593373886106
1557947970375,,,,,,,,1004.417724609375,,
1557947970406,,15.850832740356722,,,,,,,,
1557947970437,,,,2.39901895340194,,,1.2665714025497437,,,
1557947970438,,,,,-10.915498733520508,-2.1907615661621094,,,14.02012013474183,40.520083229679905
1557947970446,,13.481038830945982,0.0,,,,,,,
1557947970481,0.0,,,,,,,1004.417724609375,,
1557947970486,,22.893206799619886,,,,,,,,
1557947970487,,,,3.12460202543985,-11.47336483001709,-1.7095122337341309,4.72150993347168,,354.13051450279,40.03623319748237
1557947970531,,29.641435992479256,0.0,,,,,,,
1557947970546,,,,,,,,,352.10609509789606,
1557947970547,,,,2.9464607732425074,-13.71201229095459,-5.849213123321533,4.1061811447143555,,359.19079557923857,39.83313181941137
1557947970566,,28.947906150702863,,,,,,,,
1557947970588,0.0,,,,,,,1004.412841796875,,
1557947970606,,27.237334293490495,,,,,,,,
1557947970609,,,,,,,,,9.192351184080053,39.09017244185313
1557947970610,,,,6.446216792623407,-5.990475654602051,0.742225170135498,5.638517379760742,,,
1557947970646,,19.04313101492091,0.0,,,,,,,
1557947970673,,,,4.153235697652362,-8.114197731018066,-0.8691217303276062,5.157268047332764,,334.2390484980629,40.87334413037908
1557947970686,,19.836104360372147,,,,,,,,
1557947970694,0.0,,,,,,,1004.410888671875,,
1557947970729,,16.244493150026152,0.0,,,,,,,
1557947970737,,,,2.143583494787921,-8.628966331481934,1.0726351737976074,2.288926601409912,,340.02498541379805,41.486430469414564
1557947970766,,18.39105917759467,,,,,,,,
1557947970776,,,,,,,,1004.410888671875,,
1557947970787,,,,,,,,,5.729850390478759,40.700039471281464
1557947970788,,,,1.3790769822539959,-7.644919395446777,0.09098244458436966,1.7909175157546997,,9.575680183321424,
1557947970797,0.0,,,,,,,,,
1557947970806,,16.76890523925181,0.0,,,,,,,
1557947970846,,23.99302793787113,,,,,,,,
1557947970849,,,,2.011299045076183,-7.7335076332092285,1.4150164127349854,2.384697675704956,,5.312259881700186,40.03843514601885
1557947970877,,,,,,,,1004.4072265625,,
1557947970885,,19.925254658042928,,,,,,,,
1557947970907,,,,,,,,,3.149542379604952,41.02411930412347
1557947970908,,,,2.036723816356496,-8.382355690002441,0.1412622183561325,1.982459545135498,,10.3911714730487,
1557947970911,0.0,,,,,,,,,
1557947970926,,19.295955735467757,0.0,,,,,,,
1557947970965,,16.20656479819621,,,,,,,,
1557947970968,,,,1.2202061488348175,,,,,,
1557947970969,,,,,-9.33288288116455,1.0032011270523071,1.7789461612701416,,12.701700672085337,40.3971578543661
1557947970979,,,,,,,,1004.403076171875,,
1557947971005,,10.721072832592547,,,,,,,,
1557947971006,,,0.0,,,,,,,
1557947971013,0.0,,,,,,,,,
1557947971029,,,,1.0078223767646781,-9.99370288848877,0.7709565162658691,1.9369683265686035,,12.970713648961805,40.94141523191424
1557947971046,,16.30394432229743,,,,,,,,
1557947971079,,,,,,,,1004.403076171875,,
1557947971086,,20.27860198681364,0.0,,,,,,,
1557947971087,,,,,,,,,12.214755995587609,
1557947971088,,,,0.7065229749190326,-12.419103622436523,1.4365649223327637,0.6273000240325928,,22.72349124595155,40.8455901308889
1557947971113,0.0,,,,,,,,,
1557947971130,,33.282572959787565,,,,,,,,
1557947971147,,,,6.311344456425767,,,,,,
1557947971148,,,,,-14.945063591003418,1.9010541439056396,4.807703971862793,,1.1497780366240704,40.53327634939992
1557947971166,,36.524080124497445,,,,,,,,
1557947971180,,,,,,,,1004.395751953125,,
1557947971206,,25.70834706424214,,,,,,,,
1557947971207,,,0.0,,,,,,356.6016933796433,
1557947971208,,,,,,,,,,40.8127477801292
1557947971213,,,,6.282881643450358,,,2.478074312210083,,8.370870672224271,
1557947971214,,,,,-11.528432846069336,-1.7861289978027344,,,,
1557947971215,0.0,,,,,,,,,
1557947971247,,19.32495622888909,,,,,,,,
1557947971272,,,,4.674900261942114,-6.648900985717773,-3.313676357269287,3.7015488147735596,,297.9731465243358,40.64197223405843
1557947971275,,,,,,,,1004.393798828125,,
1557947971286,,20.556569492985922,0.0,,,,,,,
1557947971315,0.0,,,,,,,,,
1557947971326,,18.90491355586541,,,,,,,,
1557947971335,,,,1.0037412396496423,-10.146936416625977,-0.44533511996269226,1.1588289737701416,,17.006979788034982,41.30972765055012
1557947971366,,21.239811998958544,0.0,,,,,,,
1557947971376,,,,,,,,1004.405517578125,,
1557947971387,,,,1.8590913444021664,,,,,,
1557947971388,,,,,-8.746285438537598,-1.9920365810394287,1.209108829498291,,20.495693567010335,41.33046128235963
1557947971406,,15.88233584082306,,,,,,,,
1557947971415,0.0,,,,,,,,,
1557947971446,,12.665457998161243,,,,,,,,
1557947971448,,,,1.7868552105379198,-7.240286827087402,-0.797293484210968,1.051086664199829,,21.112203516968634,41.33620990182645
1557947971477,,,,,,,,1004.40283203125,,
1557947971486,,15.10639224175113,0.0,,,,,,,
1557947971507,,,,,,,,,16.574367558837423,42.10619231234297
1557947971508,,,,2.5920106502125777,-7.017619609832764,,0.7278595566749573,,21.102806884217955,
1557947971519,,,,,,-0.9840469360351562,,,,
1557947971520,0.0,,,,,,,,,
1557947971526,,35.99848862718023,,,,,,,,
1557947971566,,45.429575640525044,,,,,,,,
1557947971567,,,,2.7236683522802276,,,,,,
1557947971568,,,0.0,,-6.639324188232422,-1.6185297966003418,2.106961727142334,,1.6144216118731833,41.88017164550409
1557947971586,,,,,,,,1004.394287109375,,
1557947971606,,32.90091801445381,,,,,,,,
1557947971627,0.0,,,,,,,,,
1557947971628,,,,1.6982305349747584,-9.019232749938965,-3.407052993774414,2.1261160373687744,,20.42164577867095,41.26944640974922
1557947971646,,24.679150114913206,0.0,,,,,,,
1557947971682,,,,,,,,1004.38671875,,
1557947971686,,24.11198673955554,,,,,,,,
1557947971687,,,,2.2914627562460925,,,1.4198049306869507,,,
1557947971688,,,,,-10.120599746704102,-1.9920365810394287,,,26.34582230811253,42.140249660170646
1557947971726,,27.389355281799578,,,,,,,,
1557947971727,0.0,,,,,,,,,
1557947971747,,,,,,,,,22.98863235934226,42.36633063454454
1557947971748,,,,2.043056508033865,-11.389565467834473,-0.9481328129768372,1.398256540298462,,20.959051892756747,
1557947971766,,22.87018009865436,0.0,,,,,,,
1557947971782,,,,,,,,1004.3896484375,,
1557947971806,,25.9840336201564,,,,,,,,
1557947971807,,,,7.34801524865609,-13.896370887756348,-5.954561233520508,6.7087578773498535,,358.90861463797256,42.28314436008408
1557947971827,0.0,,,,,,,,,
1557947971846,,24.495824636053094,0.0,,,,,,,
1557947971868,,,,1.2481593885732092,-8.439818382263184,-0.39266106486320496,3.9816789627075195,,0.23086047398771825,42.376610313727554
1557947971882,,,,,,,,1004.38720703125,,
1557947971886,,23.4281082978996,,,,,,,,
1557947971926,0.0,,,,,,,,,
1557947971927,,,,,,,,,29.63150871400927,41.35584468915628
1557947971928,,27.13906072391572,0.0,0.9814600701432451,-7.087053298950195,-0.11013664305210114,8.741497039794922,,331.8994081790101,
1557947971966,,34.165471115881054,,,,,,,,
1557947971980,,,,,,,,1004.398681640625,,
1557947971987,,,,,,,,,327.42422896123,40.20183427742336
1557947971988,,,,5.3502774888564115,-7.170853137969971,0.15802213549613953,6.086246490478516,,351.83203119612836,
1557947972006,,37.43187987413589,,,,,,,,
1557947972029,0.0,,,,,,,,,
1557947972048,,31.149748352062552,,,,,,,,
1557947972049,,,,1.7994958091956264,-7.398309230804443,0.3232271075248718,3.3902931213378906,,26.724033788118277,
1557947972050,,,278.291015625,,,,,,,40.92250692267404
1557947972077,,,,,,,,1004.402587890625,,
1557947972086,,27.07379933882914,278.291015625,,,,,,,
1557947972107,,,,4.10927033381738,-8.320104598999023,0.5626545548439026,-0.9289786219596863,,53.08291200282929,41.32105509061791
1557947972127,,31.110330233008277,,,,,,,,
1557947972128,,,278.291015625,,,,,,,
1557947972146,0.0,,,,,,,,,
1557947972168,,,,3.608293643818298,,,,,39.33015876937395,41.11475662988881
1557947972169,,30.940851204294702,,,-7.69280481338501,-0.6416656374931335,1.1731946468353271,,28.407820560046275,
1557947972179,,,,,,,,1004.38720703125,,
1557947972206,,23.130022739424028,0.0,,,,,,,
1557947972227,,,,1.6355811196353027,,,,,,
1557947972228,,,,,-8.377567291259766,1.4150164127349854,3.0287575721740723,,4.76599543914773,41.50833495957939
1557947972246,0.0,17.82986655710546,,,,,,,,
1557947972277,,,,,,,,1004.396728515625,,
1557947972286,,19.34372470854743,,,,,,,,
1557947972287,,,,2.109588612230831,-9.988914489746094,1.6496553421020508,1.8364087343215942,,20.27056540932483,41.76586030793531
1557947972326,,17.37934212583063,0.0,,,,,,,
1557947972346,0.0,,,,,,,,,
1557947972347,,,,3.920364636180573,-12.43346881866455,1.1588289737701416,0.4022381603717804,,35.725594736791436,41.86043933198618
1557947972366,,37.246659889255476,,,,,,,,
1557947972387,,,,,,,,1004.39306640625,,
1557947972406,,36.82232542316906,,,,,,,,
1557947972408,,,,4.662024686992649,-14.178894996643066,1.0606637001037598,2.164424419403076,,29.410050075455388,40.8132768216054
1557947972409,,,0.0,,,,,,,
1557947972445,,25.45046109528371,,,,,,,,
1557947972449,0.0,,,,,,,,,
1557947972468,,,,4.435695872456181,-12.095876693725586,-0.27534160017967224,5.559505939483643,,1.2407694965818905,41.305849261445175
1557947972477,,,,,,,,1004.376220703125,,
1557947972485,,24.01892659227293,,,,,,,,
1557947972486,,,0.0,,,,,,,
1557947972526,,24.78110666202184,,,,,,,,
1557947972528,,,,4.142890972318788,,,,,,
1557947972529,,,,,-7.4270405769348145,-3.589017868041992,2.9353809356689453,,5.491126741250355,40.95759217566761
1557947972548,0.0,,,,,,,,,
1557947972566,,17.8428323953696,,,,,,,,
1557947972579,,,,,,,,1004.378173828125,,
1557947972589,,,,3.837950261941231,-9.270631790161133,-1.4629019498825073,1.953728199005127,,32.51038905294007,41.120883830884324
1557947972606,,23.215540490354446,0.0,,,,,,,
1557947972646,,25.430779012069657,,,,,,,,
1557947972664,,,,1.0242890171648378,-8.995290756225586,-0.10774236917495728,1.5467015504837036,,35.45369173612238,42.22039182234488
1557947972665,0.0,,,,,,,,,
1557947972686,,20.901512403674385,0.0,,,,,,,
1557947972687,,,,,,,,1004.37451171875,,
1557947972708,,,,,,,,,27.987280690206717,40.942734933246555
1557947972709,,,,0.9624582058638536,-7.609005451202393,-1.242628574371338,1.8244373798370361,,29.515982894387662,
1557947972726,,17.931772260605136,,,,,,,,
1557947972766,,17.842185021982672,0.0,,,,,,,
1557947972774,0.0,,,1.9664446942553928,-6.2418742179870605,-0.5075862407684326,0.9481328129768372,,32.82958769851683,41.44992555942457
1557947972794,,,,,,,,1004.370849609375,,
1557947972806,,39.75706396050026,,,,,,,,
1557947972838,,,,3.6881285309560528,,,2.5858168601989746,,,
1557947972839,,,,,-6.900300025939941,-1.3168511390686035,,,32.43146621708058,42.191818895031574
1557947972846,,38.108913046244815,,,,,,,,
1557947972847,,,0.0,,,,,,,
1557947972877,0.0,,,,,,,1004.367431640625,,
1557947972886,,27.488048440509893,,,,,,,,
1557947972888,,,,1.0774953357923063,,,,,,
1557947972889,,,,,-9.30415153503418,-2.858764171600342,2.784541606903076,,33.58612335664952,41.8623734010848
1557947972926,,20.21519782958229,,,,,,,,
1557947972957,,,,0.9692229377819693,-11.482941627502441,-3.0215747356414795,0.7494080066680908,,34.817678180989105,41.75353413159942
1557947972966,,22.86015022793595,0.0,,,,,,,
1557947972978,,,,,,,,1004.35546875,,
1557947972979,0.0,,,,,,,,,
1557947973006,,24.570214941905284,,,,,,,,
1557947973008,,,,3.0325896458847095,-11.628993034362793,-0.48843204975128174,2.7486274242401123,,28.772499727758884,42.32433157933021
1557947973045,,28.65616222486555,,,,,,,,
1557947973046,,,0.0,,,,,,,
1557947973068,,,,7.988791720395236,-13.910737037658691,-6.419050693511963,7.249864101409912,,27.68110038518796,42.204613859943066
1557947973077,,,,,,,,1004.347900390625,,
1557947973079,0.0,,,,,,,,,
1557947973085,,26.407163044619967,,,,,,,,
1557947973126,,23.053001766037635,0.0,,,,,,,
1557947973129,,,,7.989064610505418,-6.69199800491333,0.5099805593490601,4.857983589172363,,33.676080363113215,42.58140298161647
1557947973166,,20.61963382671923,,,,,,,,
1557947973178,,,,,,,,1004.344970703125,,
1557947973179,0.0,,,,,,,,,
1557947973188,,,,3.405395120558556,-8.674457550048828,-0.46448931097984314,5.279376029968262,,6.154925079040368,41.92381637250884
1557947973206,,31.1576744676951,,,,,,,,
1557947973246,,30.955976642938975,0.0,,,,,,,
1557947973248,,,,1.8362474545122944,-8.4613676071167,0.9122186899185181,2.142875909805298,,29.234497138313145,41.45587394874372
1557947973277,,,,,,,,1004.341796875,,
1557947973286,,27.386902462920716,,,,,,,,
1557947973294,0.0,,,,,,,,,
1557947973308,,,,2.852056591130553,-7.32169246673584,-0.1484450399875641,0.6703969240188599,,41.20477590407023,41.58934921239772
1557947973326,,26.95569028528834,0.0,,,,,,,
1557947973366,,24.20131702776187,,,,,,,,
1557947973372,,,,,,,,,39.375757112272936,
1557947973373,,,,2.8442177859374222,-7.079870700836182,0.16759923100471497,1.8196488618850708,,28.55464059889755,40.91533545322887
1557947973377,,,,,,,,1004.34375,,
1557947973397,0.0,,,,,,,,,
1557947973406,,21.067904599620853,0.0,,,,,,,
1557947973443,,,,2.5239062744850993,-8.547560691833496,0.6440598964691162,2.317657947540283,,29.74979734515017,41.523727348801714
1557947973449,,22.408024478196502,,,,,,,,
1557947973486,,17.86884960377318,,,,,,1004.343505859375,,
1557947973488,,,,,,,,,30.431327280912342,41.15204008857323
1557947973489,,,,1.282068363375458,-9.603436470031738,1.659232497215271,2.0231621265411377,,30.850929707288344,
1557947973510,0.0,,,,,,,,,
1557947973528,,19.119694561599097,0.0,,,,,,,
1557947973557,,,,2.9784138046120967,-11.830111503601074,1.18037748336792,1.5155760049819946,,36.69209724019947,
1557947973558,,,,,,,,,,41.254394634291366
1557947973566,,24.501652879124613,,,,,,,,
1557947973578,,,,,,,,1004.3369140625,,
1557947973606,,27.851530202937266,0.0,,,,,,,
1557947973608,,,,2.744395179752531,-13.901159286499023,-0.25858166813850403,1.4916331768035889,,36.798545738414134,40.02971368504789
1557947973621,0.0,,,,,,,,,
1557947973646,,25.308716853742634,,,,,,,,
1557947973667,,,,,,,6.203566074371338,,,
1557947973668,,,,5.4570742409500195,-12.78542709350586,1.1851660013198853,,,18.55400909730639,40.43755067488314
1557947973681,,,,,,,,1004.3349609375,,
1557947973685,,22.85480763810984,,,,,,,,
1557947973686,,,0.0,,,,,,,
1557947973726,,22.641161254015884,,,,,,,,
1557947973733,0.0,,,5.301939037385506,-7.771816253662109,-3.3878989219665527,3.476486921310425,,19.84877732241449,40.286994239787994
1557947973766,,19.684167610681857,,,,,,,,
1557947973776,,,,,,,,1004.32470703125,,
1557947973788,,,,1.498990434413772,-9.000079154968262,-1.8172545433044434,2.513988494873047,,42.154452236457985,40.794219591634
1557947973806,,18.545883037932786,0.0,,,,,,,
1557947973846,0.0,,,,,,,,,
1557947973847,,23.38484726481148,,,,,,,,
1557947973848,,,,1.5206708777766695,,,,,40.39660743090678,41.01547380809191
1557947973849,,,,,-8.856422424316406,-0.5674431324005127,1.1277034282684326,,41.11455935041812,
1557947973886,,24.02113150426831,0.0,,,,,,,
1557947973890,,,,,,,,1004.321044921875,,
1557947973910,,,,1.8902573661564812,,,,,,
1557947973926,,20.674571760249915,,,,,,,,
1557947973951,0.0,,,,,,,,,
1557947973966,,21.762258268203173,0.0,,,,,,,
1557947973972,,,,2.88202737180801,,,,,,
1557947973973,,,,,-6.890722751617432,-1.5490957498550415,1.1085492372512817,,46.05232849766293,42.06598919823419
1557947973982,,,,,,,,1004.31640625,,
1557947974006,,25.89661535625153,,,,,,,,
1557947974034,,,,2.115147582692476,-7.405491828918457,-2.109356164932251,1.8052831888198853,,44.48555140395371,41.66043999397927
1557947974048,,24.08151478645227,,,,,,,,
1557947974053,0.0,,,,,,,,,
1557947974076,,,,,,,,1004.31494140625,,
1557947974086,,18.57346173920661,0.0,,,,,,,
1557947974088,,,,2.0390353730834456,-8.478127479553223,-2.578634023666382,1.9944308996200562,,40.573341990775475,41.864179053572656
1557947974126,,21.677040461754302,,,,,,,,
1557947974156,0.0,,,1.2159095333101801,-10.137359619140625,-3.002420663833618,1.2210801839828491,,37.94859933048252,42.1465721158113
1557947974166,,14.051767084446919,0.0,,,,,,,
1557947974176,,,,,,,,1004.306640625,,
1557947974206,,22.239310222452524,,,,,,,,
1557947974208,,,,2.0041438328109074,-11.49251937866211,-1.1708003282546997,1.9872480630874634,,39.157563304142286,41.939312107191455
1557947974245,,25.53211995322433,,,,,,,,
1557947974246,,,0.0,,,,,,,
1557947974273,0.0,,,7.194213915862351,-13.865245819091797,-6.567495822906494,6.033572673797607,,35.78040017469158,42.11923003924838
1557947974275,,,,,,,,1004.301513671875,,
1557947974286,,27.414209487165927,,,,,,,,
1557947974326,,22.2002354170807,,,,,,,,
1557947974346,,,,7.337519953374035,-7.415069103240967,0.1771763414144516,4.254626274108887,,36.11202293436867,42.04608790546747
1557947974366,,23.776421658071634,0.0,,,,,,,
1557947974375,,,,,,,,1004.30615234375,,
1557947974393,,,,,-8.435029983520508,,5.044736862182617,,18.352952233803308,
1557947974394,0.0,,,2.5678626911020777,,-0.18675343692302704,,,,41.22646187374464
1557947974406,,21.9465433007279,,,,,,,,
1557947974445,,18.94402098090389,,,,,,,,
1557947974446,,,0.0,,,,,,,
1557947974453,,,,1.6465047199263865,-7.970541000366211,-0.07182824611663818,3.411841630935669,,24.79031161143928,40.62434118696576
1557947974477,,,,,,,,1004.307861328125,,
1557947974486,,25.66200248211345,,,,,,,,
1557947974494,0.0,,,,,,,,,
1557947974508,,,,1.396624791481865,-8.379961967468262,0.004788549616932869,1.7789461612701416,,32.237642523908505,40.96963143057913
1557947974526,,27.55785437471378,0.0,,,,,,,
1557947974566,,24.588099399196057,,,,,,,,
1557947974568,,,,2.169244064648263,-7.510839939117432,0.13886794447898865,1.6065584421157837,,32.770561203709576,40.75890419644729
1557947974575,,,,,,,,1004.30810546875,,
1557947974606,,22.58076934738137,,,,,,,,
1557947974609,0.0,,,,,,,,,
1557947974631,,,,,,,,,28.893370170406,
1557947974632,,,,2.1602346119800013,-8.4613676071167,0.9217957854270935,1.80049467086792,,26.994577581142437,41.139396380352935
1557947974646,,19.56991217867476,0.0,,,,,,,
1557947974675,,,,,,,,1004.3056640625,,
1557947974685,,17.41832913871626,,,,,,,,
1557947974693,,,,1.659804075697535,-8.20278549194336,0.45251792669296265,2.1596357822418213,,29.637027506858658,40.629613080070776
1557947974713,0.0,,,,,,,,,
1557947974726,,16.01715176318262,0.0,,,,,,,
1557947974752,,,,1.3258580326646485,-10.25228500366211,0.5291347503662109,1.953728199005127,,31.839756683998587,40.53842502890134
1557947974766,,15.193487204941643,,,,,,,,
1557947974781,,,,,,,,1004.29833984375,,
1557947974805,,26.642346508433306,,,,,,,,
1557947974806,,,0.0,,,,,,,
1557947974808,,,,3.8842954816220927,-12.495719909667969,1.1708003282546997,0.4477293789386749,,39.52418736822108,40.82976737186669
1557947974829,0.0,,,,,,,,,
1557947974848,,27.36832213420584,,,,,,,,
1557947974867,,,,4.641167092048978,-14.068758964538574,0.9050358533859253,2.7677817344665527,,32.8202576601106,
1557947974868,,,,,,,,,,39.67379375563884
1557947974883,,,,,,,,1004.30126953125,,
1557947974886,,23.973437987937945,,,,,,,,
1557947974927,,25.954599778671046,0.0,,,,,,,
1557947974946,0.0,,,2.1508254218839715,-11.289005279541016,-1.319245457649231,2.5331428050994873,,36.96223805206267,39.68921603235189
1557947974966,,23.262905672992552,,,,,,,,
1557947974975,,,,,,,,1004.289306640625,,
1557947974987,,,,,,,,,35.25797949564486,40.45624297362994
1557947974988,,,,1.9934433512909033,-6.974522590637207,-3.6512691974639893,3.289733648300171,,41.97326780834504,
1557947975006,,19.06868043266849,0.0,,,,,,,
1557947975045,0.0,,,,,,,,,
1557947975046,,18.861836676382392,,,,,,,,
1557947975047,,,,0.3371524796493859,,,,,,
1557947975048,,,,,-9.624984741210938,-0.9888355135917664,1.9609110355377197,,35.59071899125115,40.644097999177575
1557947975075,,,,,,,,1004.296142578125,,
1557947975086,,27.17072989593597,0.0,,,,,,,
1557947975107,,,,1.1067222255429785,,,,,,
1557947975108,,,,,-9.153312683105469,-1.2210801839828491,1.1205205917358398,,40.06857735073322,40.09014790196302
1557947975127,,25.44284645170931,,,,,,,,
1557947975149,0.0,,,,,,,,,
1557947975166,,17.085442228654802,,,,,,,,
1557947975168,,,,2.3795320536487927,-7.769421577453613,-1.9417568445205688,0.8332076072692871,,42.56829339826902,40.318079393261094
1557947975175,,,,,,,,1004.2861328125,,
1557947975206,,22.760825708269646,0.0,,,,,,,
1557947975229,,,,,,,,,39.07211763762547,
1557947975230,,,,2.2993648813143763,-6.957762718200684,-1.1516461372375488,1.848380208015442,,31.72416939267447,41.757715096720474
1557947975246,,31.049622161008838,,,,,,,,
1557947975264,0.0,,,,,,,,,
1557947975275,,,,,,,,1004.2861328125,,
1557947975286,,26.29307871300441,0.0,,,,,,,
1557947975287,,,,2.424766832133775,-6.694392204284668,,2.7701759338378906,,32.9528657828464,
1557947975288,,,,,,-2.5929996967315674,,,,41.27616063638305
1557947975326,,16.963920538792753,,,,,,,,
1557947975347,,,,2.038606556161933,-9.217958450317383,,1.333611011505127,,37.70134989762266,
1557947975348,,,,,,-2.7390503883361816,,,,41.57532250356008
1557947975365,0.0,,,,,,,,,
1557947975366,,17.93260457265634,0.0,,,,,,,
1557947975375,,,,,,,,1004.288330078125,,
1557947975406,,14.917427374927621,,,,,,,,
1557947975407,,,,,,,,,34.16760809654397,42.49669026727962
1557947975408,,,,2.0637651666815215,-9.778218269348145,-2.911438226699829,2.0590763092041016,,33.1654622509522,
1557947975446,,23.83526342445559,,,,,,,,
1557947975471,0.0,,,1.4424100859070952,-11.794198036193848,-2.267378330230713,3.2155110836029053,,32.18827391658766,41.40895563552958
1557947975475,,,,,,,,1004.284423828125,,
1557947975486,,27.462691597006256,0.0,,,,,,,
1557947975525,,28.476023838184656,,,,,,,,
1557947975529,,,,2.8299739968550908,-12.495719909667969,-5.485283374786377,4.7861552238464355,,31.20773537443523,42.201159379409376
1557947975566,,25.75626328601677,0.0,,,,,,,
1557947975576,0.0,,,,,,,1004.284423828125,,
1557947975587,,,,3.7154916545274705,-6.330462455749512,-0.7206767201423645,5.487678050994873,,14.968081235874251,41.34465853106413
1557947975606,,23.575199985085842,,,,,,,,
1557947975645,,23.02502227581915,,,,,,,,
1557947975646,,,0.0,,,,,,,
1557947975660,,,,2.0784920963360074,-8.674457550048828,-0.46927785873413086,5.344021320343018,,19.37192595796273,40.525991181589944
1557947975676,,,,,,,,1004.277587890625,,
1557947975682,0.0,,,,,,,,,
1557947975686,,19.363296243461324,,,,,,,,
1557947975708,,,,1.0813031001640745,-8.449396133422852,-0.25618740916252136,3.8954851627349854,,25.216365151486343,40.80838134004589
1557947975726,,19.92908519938889,0.0,,,,,,,
1557947975766,,31.94122607097058,,,,,,,,
1557947975773,,,,2.199536586851743,-8.310527801513672,-0.03591412305831909,1.2043201923370361,,35.98824966132429,40.303656453779894
1557947975775,,,,,,,,1004.26953125,,
1557947975795,0.0,,,,,,,,,
1557947975806,,31.35123633016258,,,,,,,,
1557947975843,,,,1.8257138254091299,-7.079870700836182,0.8858816623687744,1.659232497215271,,36.651659105218414,41.302928396413556
1557947975846,,32.2993942582449,,,,,,,,
1557947975850,,,40.2734375,,,,,,,
1557947975875,,,,,,,,1004.26953125,,
1557947975886,,21.434343751272348,40.2734375,,,,,,,
1557947975890,,,,2.8170260991954943,-8.047157287597656,-0.1245022863149643,1.982459545135498,,31.017347266415698,40.34945223366289
1557947975913,0.0,,,,,,,,,
1557947975926,,21.694941618872864,40.2734375,,,,,,,
1557947975956,,,,1.569818599328978,-8.779806137084961,0.337592750787735,2.296109437942505,,34.98008300397913,40.27962181466847
1557947975966,,18.26677020562032,,,,,,,,
1557947975979,,,,,,,,1004.2509765625,,
1557947976007,,22.287119239767375,,,,,,,,
1557947976008,,,0.0,2.395283069168509,-10.776631355285645,1.319245457649231,1.7262721061706543,,34.851217824908474,40.423927945163214
1557947976034,0.0,,,,,,,,,
1557947976051,,24.736317686795537,,,,,,,,
1557947976076,,,,2.056078653820077,-13.09428882598877,1.2162915468215942,0.4716721475124359,,38.36236536021272,40.44422702657604
1557947976077,,,,,,,,1004.24658203125,,
1557947976086,,23.054366774438932,,,,,,,,
1557947976127,,24.614690908354696,0.0,,,,,,,
1557947976141,,,,5.879833748990824,,,,,,
1557947976142,0.0,,,,-14.76549243927002,-0.009577099233865738,4.738269805908203,,35.86983467168375,39.29193626446488
1557947976166,,25.51428558794092,,,,,,,,
1557947976180,,,,,,,,1004.24658203125,,
1557947976188,,,,5.815451252190286,,,,,34.08446420377743,39.57790216550631
1557947976189,,,,,-7.965752124786377,-2.1237218379974365,3.162837028503418,,40.600850577657695,
1557947976206,,19.298734312578222,0.0,,,,,,,
1557947976246,,19.159911469407042,,,,,,,,
1557947976247,0.0,,,,,,,,,
1557947976248,,,,,,,,,45.35765386284305,
1557947976249,,,,2.2502851305540648,-7.597033977508545,-3.775771379470825,3.6416919231414795,,55.03866836977073,40.12784464341077
1557947976286,,16.863606013688102,0.0,,,,,,,
1557947976291,,,,,,,,1004.2490234375,,
1557947976312,,,,3.6869356402415274,-9.529213905334473,-1.2881197929382324,2.1524529457092285,,53.69872185839762,39.77560931662507
1557947976326,,26.03306428299017,,,,,,,,
1557947976356,0.0,,,,,,,,,
1557947976366,,25.617785781567157,,,,,,,,
1557947976378,,,,1.3542214847130836,-9.100638389587402,-1.7765519618988037,1.3743137121200562,,48.50867967415837,40.01190142551874
1557947976379,,,,,,,,1004.250732421875,,
1557947976406,,20.285292954590858,0.0,,,,,,,
1557947976437,,,,1.2057073548598138,-8.18363094329834,-1.9321798086166382,1.2785427570343018,,47.662671952993094,39.93783128782601
1557947976446,,19.11030714807181,,,,,,,,
1557947976457,0.0,,,,,,,,,
1557947976476,,,,,,,,1004.250732421875,,
1557947976486,,24.62540599930086,0.0,,,,,,,
1557947976488,,,,,,,,,47.470135750479585,40.29217717642996
1557947976489,,,,1.8148616006591574,-7.55154275894165,-0.9505270719528198,2.0902018547058105,,41.16810120332184,
1557947976526,,29.017414965528122,,,,,,,,
1557947976566,,22.620324848229544,0.0,,,,,,,
1557947976568,,,,2.3103036502569054,-6.8931169509887695,-2.20033860206604,2.1859729290008545,,46.89150944475284,41.00015424544935
1557947976569,0.0,,,,,,,,,
1557947976576,,,,,,,,1004.254150390625,,
1557947976606,,14.5522478999146,,,,,,,,
1557947976613,,,,1.6412762030712766,,,1.8866885900497437,,,
1557947976614,,,,,-8.291373252868652,-3.1101629734039307,,,49.74964649917422,41.48052881496017
1557947976646,,18.22336381396447,,,,,,,,
1557947976679,0.0,,,2.6339418609505554,-10.654522895812988,-3.526766777038574,1.702329397201538,1004.237548828125,47.46910780700955,40.85894132455383
1557947976686,,19.492793414516978,0.0,,,,,,,
1557947976726,,19.491243627911356,,,,,,,,
1557947976744,,,,2.3832859256893344,-11.52125072479248,-4.094210147857666,5.363175392150879,,47.25692456534847,40.747245619099374
1557947976766,,22.606026896966206,0.0,,,,,,,
1557947976776,,,,,,,,1004.237548828125,,
1557947976783,0.0,,,,,,,,,
1557947976788,,,,3.6494945489686184,-10.415095329284668,-3.038334846496582,5.202759265899658,,44.28925176720759,40.537093627473766
1557947976806,,22.129496981568863,,,,,,,,
1557947976845,,20.753193231267115,,,,,,,,
1557947976846,,,0.0,,,,,,,
1557947976850,,,,2.453874995759159,-7.099024772644043,0.1891477108001709,6.189200401306152,,45.62821814643473,40.09306558425942
1557947976876,,,,,,,,1004.22998046875,,
1557947976886,,19.637048611684154,,,,,,,,
1557947976888,0.0,,,,,,,,,
1557947976908,,,,,,,,,24.770434053407257,39.84582767589582
1557947976909,,,,3.3391892176616254,-8.04236888885498,-0.7087053656578064,4.800520896911621,,36.94625882449941,
1557947976926,,18.325197742771433,,,,,,,,
1557947976966,,17.31302733395009,0.0,,,,,,,
1557947976968,,,,1.6883840717600938,,,,,,
1557947976969,,,,,-8.028003692626953,0.18435916304588318,2.9904491901397705,,40.72632798289999,39.852421564865324
1557947976976,,,,,,,,1004.23291015625,,
1557947976988,0.0,,,,,,,,,
1557947977006,,19.922874516022738,,,,,,,,
1557947977029,,,,2.6881175551481022,-7.704776287078857,0.112530916929245,1.1971373558044434,,50.05786561566026,40.30521957468263
1557947977046,,27.18206903610519,0.0,,,,,,,
1557947977076,,,,,,,,1004.23291015625,,
1557947977086,,31.785451513033625,,,,,,,,
1557947977088,,,,2.3916376499803875,-7.307326793670654,,1.9944308996200562,,47.96523225775172,
1557947977099,0.0,,,,,,,,,
1557947977126,,27.484012003272056,0.0,,,,,,,
1557947977154,,,,1.4258064163286235,-8.188420295715332,0.5099805593490601,2.4397659301757812,,47.46102427812684,40.20541745750352
1557947977166,,22.538106363810467,,,,,,,,
1557947977176,,,,,,,,1004.230224609375,,
1557947977206,,14.738840166444461,,,,,,,,
1557947977208,,,,1.4102210032635503,-8.640937805175781,0.876304566860199,1.9728823900222778,,52.82815960716613,40.11021233250661
1557947977212,0.0,,,,,,,,,
1557947977246,,19.23994892102286,0.0,,,,,,,
1557947977268,,,,1.4355615731868718,,,,,,
1557947977269,,,,,-10.11341667175293,0.48124924302101135,1.9609110355377197,,56.35534101154701,39.494587285210386
1557947977285,,,,,,,,1004.22265625,,
1557947977286,,13.28608403908645,,,,,,,,
1557947977312,0.0,,,,,,,,,
1557947977326,,18.83503710626043,0.0,,,,,,,
1557947977331,,,,2.746119101612175,-10.877190589904785,,1.0798178911209106,,58.5149887704971,
1557947977332,,,,,,1.3838908672332764,,,,39.34838124820702
1557947977367,,24.882124612877682,,,,,,,,
1557947977376,,,,,,,,1004.22265625,,
1557947977389,,,,2.38223189487597,-14.107067108154297,-0.30886146426200867,2.2147042751312256,,57.84589660921347,39.42438255131345
1557947977406,,26.311485754284078,0.0,,,,,,,
1557947977430,0.0,,,,,,,,,
1557947977446,,26.771846926173172,,,,,,,,
1557947977451,,,,5.607206897873186,,,3.4884583950042725,,51.54797725103066,
1557947977452,,,,,-14.245935440063477,2.6408851146698,,,,38.65178222704336
1557947977476,,,,,,,,1004.214599609375,,
1557947977486,,22.34163623491593,,,,,,,,
1557947977508,,,,3.4734264845508247,,,4.0439300537109375,,,
1557947977509,,,,,-8.008849143981934,-2.456526041030884,,,72.39269689972326,38.45854723991076
1557947977526,,21.496100607919665,0.0,,,,,,,
1557947977533,0.0,,,,,,,,,
1557947977566,,19.507185519171596,,,,,,,,
1557947977568,,,,2.51818641434323,-8.071100234985352,-1.4748733043670654,4.051113128662109,,62.58522827050194,39.354373195960235
1557947977576,,,,,,,,1004.2138671875,,
1557947977606,,23.120792018179536,0.0,,,,,,,
1557947977633,0.0,,,1.1017794023524214,-9.153312683105469,0.3902668058872223,2.7127132415771484,,53.262323996852615,36.69003571478168
1557947977646,,21.060871613881066,,,,,,,,
1557947977676,,,,,,,,1004.21826171875,,
1557947977686,,23.034519796389674,0.0,,,,,,,
1557947977693,,,,,,,,,55.066702881219044,
1557947977694,,,,1.1633398898212284,-9.186832427978516,-0.22745610773563385,1.2138973474502563,,63.94189508496322,37.25405635733759
1557947977726,,20.42992265403754,,,,,,,,
1557947977733,0.0,,,,,,,,,
1557947977752,,,,0.6288755421220069,-8.171659469604492,-0.8308133482933044,0.42378664016723633,,63.1969331823791,37.50666999409602
1557947977766,,20.37338399567605,,,,,,,,
1557947977776,,,,,,,,1004.216552734375,,
1557947977806,,14.450779547569821,0.0,,,,,,,
1557947977808,,,,1.9623253762859438,-7.3025383949279785,0.22027328610420227,1.0175668001174927,,69.94464781816396,38.53462328093008
1557947977839,0.0,,,,,,,,,
1557947977846,,13.520293007938786,,,,,,,,
1557947977868,,,,2.103179536426947,-7.656890869140625,-0.706311047077179,1.41022789478302,,67.02991923137438,38.144334698034356
1557947977876,,,,,,,,1004.21875,,
1557947977886,,13.502194407607654,0.0,,,,,,,
1557947977926,,21.177127253698185,,,,,,,,
1557947977929,,,,1.8594103256844856,,,1.242628574371338,,,
1557947977930,,,,,-8.104619979858398,-1.2306572198867798,,,74.08267694568116,38.524764413161606
1557947977954,0.0,,,,,,,,,
1557947977966,,18.628639462169666,0.0,,,,,,,
1557947977979,,,,,,,,1004.208984375,,
1557947977988,,,,,,,,,79.88066743775408,38.92284588095763
1557947977989,,,,1.9143728822004589,-9.25387191772461,-0.9768640995025635,-0.1532335877418518,,78.01860760584685,
1557947978006,,12.487959308936976,,,,,,,,
1557947978046,,20.58467772926766,,,,,,,,
1557947978050,,,,2.110563042533046,-10.158907890319824,-0.7518022656440735,-1.472478985786438,,77.19470237683572,37.94467436273368
1557947978071,0.0,,,,,,,,,
1557947978076,,,,,,,,1004.211669921875,,
1557947978086,,23.736405985874505,0.0,,,,,,,
1557947978108,,,,1.7806015842192895,-9.672870635986328,0.2897072434425354,-0.6656084060668945,,83.02663207889441,37.20391774285371
1557947978126,,23.41731655948362,,,,,,,,
1557947978166,,28.259075758793138,0.0,,,,,,,
1557947978168,,,,1.6936422109616955,-11.265063285827637,-0.79011070728302,-0.3304099142551422,,82.61509269083365,36.94489789065071
1557947978176,,,,,,,,1004.205078125,,
1557947978187,0.0,,,,,,,,,
1557947978206,,25.47911383432036,,,,,,,,
1557947978228,,,,3.88614565204003,-13.0440092086792,-1.5083931684494019,1.872322916984558,,88.46911805485735,37.491646515986616
1557947978246,,21.796188718696182,0.0,,,,,,,
1557947978275,,,,,,,,1004.20166015625,,
1557947978285,,23.128010436540364,,,,,,,,
1557947978286,0.0,,,,,,,,,
1557947978288,,,,3.6798733220894952,-7.115784645080566,1.721483588218689,3.1197400093078613,,90.02107363806766,38.012260544614485
1557947978325,,25.705528671348027,,,,,,,,
1557947978326,,,0.0,,,,,,,
1557947978348,,,,,,,,,62.092020310535304,38.58639055726903
1557947978349,,,,3.6975711428263565,-8.933039665222168,1.2665714025497437,5.786962032318115,,62.259503379173225,
1557947978366,,17.222644674014475,,,,,,,,
1557947978376,,,,,,,,1004.19775390625,,
1557947978387,0.0,,,,,,,,,
1557947978406,,24.52176872017234,,,,,,,,
1557947978409,,,,4.209555319454637,-10.048770904541016,-0.742225170135498,1.0870007276535034,,78.73656294045276,39.78081449399796
1557947978451,,19.776769546113332,0.0,,,,,,,
1557947978469,,,,1.2328821643635492,-9.107821464538574,-0.2490045726299286,1.393467903137207,,102.15095684925507,39.58276841138586
1557947978477,,,,,,,,1004.189208984375,,
1557947978486,,16.21233999162575,,,,,,,,
1557947978496,0.0,,,,,,,,,
1557947978526,,17.74173393040956,0.0,,,,,,,
1557947978539,,,,0.8747251283239251,-9.026415824890137,1.7071179151535034,1.934574007987976,,102.70764458736778,39.54309574818463
1557947978566,,11.681405659412082,,,,,,,,
1557947978576,,,,,,,,1004.1875,,
1557947978589,,,,1.103485593133934,-9.51245403289795,1.4605076313018799,1.0558751821517944,,92.21211636153771,40.04774129666148
1557947978604,0.0,,,,,,,,,
1557947978606,,16.977915772737298,0.0,,,,,,,
1557947978648,,,,,,,,,97.54844753742032,39.836746063059685
1557947978649,,,,1.0292430190414135,-9.706390380859375,1.6209239959716797,1.532335877418518,,96.73639268661913,
1557947978652,,11.840118415667416,,,,,,,,
1557947978677,,,,,,,,1004.18603515625,,
1557947978686,,19.441384171270094,,,,,,,,
1557947978704,0.0,,,,,,,,,
1557947978709,,,,1.570970995037316,-9.548367500305176,1.764580488204956,0.30886146426200867,,96.04301237264696,39.81215870987326
1557947978726,,17.806266855101647,0.0,,,,,,,
1557947978766,,24.12494832934195,,,,,,,,
1557947978773,,,,1.4629654298610428,-10.73353385925293,1.3383996486663818,0.1771763414144516,,102.98507321107536,39.40072520034977
1557947978777,,,,,,,,1004.178466796875,,
1557947978806,,25.635873548843826,0.0,,,,,,,
1557947978819,0.0,,,,,,,,,
1557947978844,,,,1.2704424126554896,-14.430294036865234,3.596200704574585,3.2969164848327637,,106.2129864618775,38.36365455239953
1557947978846,,22.944699753639767,,,,,,,,
1557947978877,,,,,,,,1004.17431640625,,
1557947978886,,30.409195021810774,0.0,,,,,,,
1557947978897,,,,6.039757297515408,-7.757450580596924,-1.319245457649231,2.1811842918395996,,107.25676914064968,39.09003348805071
1557947978921,0.0,,,,,,,,,
1557947978926,,28.84273121700257,,,,,,,,
1557947978952,,,,5.166365255772639,-6.804529190063477,-3.4238128662109375,2.791724443435669,,153.0205665421092,39.07658564291171
1557947978966,,19.725617516530605,,,,,,,,
1557947978995,,,,,,,,1004.183349609375,,
1557947979006,,24.99485246295172,0.0,,,,,,,
1557947979010,,,,5.0667620014122505,-10.721562385559082,2.9401695728302,2.264983892440796,,156.89955391516452,39.51814172113301
1557947979039,0.0,,,,,,,,,
1557947979046,,26.55993840362803,,,,,,,,
1557947979069,,,,2.90029198064575,,,,,123.09452982580524,39.70712778671246
1557947979070,,,,,-10.326507568359375,0.20830190181732178,2.0207679271698,,138.853879939289,
1557947979077,,,,,,,,1004.18408203125,,
1557947979085,,30.58774522593267,,,,,,,,
1557947979086,,,0.0,,,,,,,
1557947979126,,22.361463665971414,,,,,,,,
1557947979134,,,,1.7638319244931837,-8.7031888961792,-0.7781392931938171,1.9656996726989746,,145.08417359449953,39.31007470208491
1557947979156,0.0,,,,,,,,,
1557947979165,,15.711791487514022,,,,,,,,
1557947979166,,,0.0,,,,,,,
1557947979179,,,,,,,,1004.183837890625,,
1557947979190,,,,1.670288188532585,-9.73272705078125,-0.8619389533996582,2.1261160373687744,,157.4656536539535,38.303361774323726
1557947979206,,12.97184632277197,,,,,,,,
1557947979246,,22.446445098395785,,,,,,,,
1557947979262,,,,,,,,,163.9992077083126,
1557947979263,0.0,,,1.254521964472716,-8.865999221801758,-1.3719195127487183,2.0207679271698,,165.6197247304115,36.789786164807296
1557947979284,,,,,,,,1004.1806640625,,
1557947979286,,21.458360162243718,0.0,,,,,,,
1557947979310,,,,1.5083984659509335,-7.9825119972229,-3.3088877201080322,1.3120626211166382,,173.1832030097168,36.225195640462154
1557947979326,,24.09226523796945,,,,,,,,
1557947979366,,18.051439353444966,0.0,,,,,,,
1557947979371,,,,3.151856338654508,,,,,175.20399643793513,
1557947979372,0.0,,,,-9.031204223632812,-1.2378400564193726,-0.337592750787735,,,36.66495735551975
1557947979392,,,,,,,,1004.173828125,,
1557947979406,,22.26658346067034,,,,,,,,
1557947979433,,,,,,,,,166.8983088222812,35.583287094953356
1557947979434,,,,1.347896477117179,-11.200417518615723,0.0023942748084664345,-1.5347301959991455,,,
1557947979446,,21.22184289368102,0.0,,,,,,,
1557947979475,0.0,,,,,,,,,
1557947979477,,,,,,,,1004.17236328125,,
1557947979486,,24.439889991065517,,,,,,,,
1557947979497,,,,2.3316983443810764,-10.671282768249512,-1.362342357635498,-2.0566821098327637,,162.71518678586358,35.158667581100694
1557947979526,,29.509978300790113,,,,,,,,
1557947979553,,,,2.4417052551275473,-14.126221656799316,-2.633702278137207,1.3407938480377197,,165.13189895951083,33.99888245886123
1557947979566,,24.481846963893055,0.0,,,,,,,
1557947979579,,,,,,,,1004.18603515625,,
1557947979580,0.0,,,,,,,,,
1557947979606,,25.353048866156925,,,,,,,,
1557947979609,,,,6.411459391077627,,,6.136526107788086,,,
1557947979610,,,,,,,,,223.4054373551245,
1557947979611,,,,,-5.937801361083984,-0.47646069526672363,,,,34.569841670439835
1557947979646,,18.533270310926458,0.0,,,,,,,
1557947979669,,,,,,,,,222.29032701084986,35.15682519057462
1557947979670,,,,5.545476172926638,-9.004867553710938,-0.8930644989013672,5.96174430847168,,212.06629880452783,
1557947979677,,,,,,,,1004.181640625,,
1557947979686,0.0,22.037936468208407,,,,,,,,
1557947979726,,20.149807863418815,0.0,,,,,,,
1557947979729,,,,1.0943311509737983,-10.070320129394531,0.05027977004647255,1.5395187139511108,,183.75733669498106,35.3510500033423
1557947979766,,23.47832080969171,,,,,,,,
1557947979777,,,,,,,,1004.185791015625,,
1557947979796,,,,1.4198391770912298,,,,,,
1557947979797,0.0,,,,-8.269824981689453,-0.6727912425994873,1.7286664247512817,,183.76463133701463,34.464188667749596
1557947979806,,21.05065834408304,,,,,,,,
1557947979846,,21.711408190003574,,,,,,,,
1557947979847,,,0.0,,,,,,,
1557947979862,,,,1.5051997975390092,-9.258660316467285,0.9265843629837036,1.6688095331192017,,189.95675789514314,34.81975217769096
1557947979884,,,,,,,,1004.18798828125,,
1557947979886,,27.75515094879743,,,,,,,,
1557947979907,0.0,,,,,,,,,
1557947979909,,,,1.00996712716116,,,,,,
1557947979910,,,,,,,,,190.9624486089142,34.93865383911658
1557947979911,,,,,-9.71357250213623,-0.05027977004647255,1.503604531288147,,187.77086513430731,
1557947979926,,19.983497996031986,,,,,,,,
1557947979927,,,0.0,,,,,,,
1557947979968,,20.52208251243308,,,,,,,,
1557947979974,,,,0.8801652833843094,,,,,,
1557947979975,,,,,-9.960183143615723,0.1245022863149643,1.4030450582504272,,186.95340077368348,34.82037190893841
1557947979994,,,,,,,,1004.189453125,,
1557947980006,,20.45795157326132,0.0,,,,,,,
1557947980014,0.0,,,,,,,,,
1557947980032,,,,0.8318407440584087,,,,,,
1557947980033,,,,,-11.837294578552246,1.6807808876037598,0.5985686779022217,,181.71278786882942,34.12280582743419
1557947980046,,23.402709543071346,,,,,,,,
1557947980077,,,,,,,,1004.1875,,
1557947980086,,26.574975927257825,,,,,,,,
1557947980089,,,,4.603715532159845,-14.291426658630371,,1.3862850666046143,,178.40454112073306,
1557947980090,,,,,,0.23463892936706543,,,,33.30199861953618
1557947980115,0.0,,,,,,,,,
1557947980126,,28.383696307600864,0.0,,,,,,,
1557947980150,,,,4.570468371741015,-13.400755882263184,1.319245457649231,4.1397013664245605,,185.0049663695322,33.46526582216488
1557947980166,,27.360322465525883,,,,,,,,
1557947980177,,,,,,,,1004.19287109375,,
1557947980206,,21.928309545176532,0.0,,,,,,,
1557947980209,,,,4.763017184793345,,,,,203.01886630538888,33.34456342589817
1557947980210,,,,,-6.385530948638916,-4.376734256744385,3.4238128662109375,,202.2641987039941,
1557947980226,0.0,,,,,,,,,
1557947980246,,23.917519982144647,,,,,,,,
1557947980275,,,,2.950364694843769,-8.796566009521484,-2.6265194416046143,4.0487189292907715,,202.58931570848677,
1557947980277,,,,,,,,1004.18896484375,,
1557947980286,,19.350077265503163,0.0,,,,,,,
1557947980326,,31.042667927770072,,,,,,,,
1557947980340,,,,0.7324762756489662,-9.483722686767578,-1.5227587223052979,2.1261160373687744,,194.1012210608585,32.8611622823798
1557947980341,0.0,,,,,,,,,
1557947980366,,30.007141273294906,,,,,,,,
1557947980377,,,,,,,,1004.187255859375,,
1557947980389,,,,0.5310328544682704,,,,,201.61158778917775,
1557947980390,,,,,-8.109408378601074,-1.5395187139511108,0.2729473412036896,,186.4001554509124,33.543649410875275
1557947980406,,21.43007715342035,0.0,,,,,,,
1557947980446,,18.88366730171237,,,,,,,,
1557947980450,0.0,,,2.594166182254395,-6.945791244506836,-2.0231621265411377,1.6352896690368652,,199.68543346209913,33.50106875018488
1557947980478,,,,,,,,1004.194091796875,,
1557947980486,,24.437426989592517,0.0,,,,,,,
1557947980509,,,,,,,,,196.45433051295458,
1557947980510,,,,2.507277957597209,-6.481301784515381,-2.317657947540283,2.413429021835327,,205.51025976742108,32.624223671369265
1557947980526,,22.93912238368889,,,,,,,,
1557947980564,0.0,,,,,,,,,
1557947980567,,19.916755324744905,0.0,,,,,,,
1557947980570,,,,1.949663314119038,-8.267431259155273,-3.1101629734039307,1.453324794769287,,190.12808636028376,33.03608902314175
1557947980577,,,,,,,,1004.19189453125,,
1557947980606,,20.61719966795264,,,,,,,,
1557947980631,,,,2.357523817182763,-10.225947380065918,-3.344801902770996,1.3216396570205688,,181.40756037519986,32.323743486663766
1557947980646,,16.997866157474668,,,,,,,,
1557947980674,0.0,,,,,,,,,
1557947980677,,,,,,,,1004.189453125,,
1557947980686,,21.401323474213388,0.0,,,,,,,
1557947980697,,,,2.8092233856670448,-11.679272651672363,-2.3320236206054688,2.1907615661621094,,185.2736523511022,32.752085575655414
1557947980726,,24.74960006120792,,,,,,,,
1557947980764,,,,7.52659621434088,-13.747925758361816,-7.676044940948486,5.238673210144043,,198.67001655895,33.03717810733134
1557947980766,,25.961487203126595,0.0,,,,,,,
1557947980777,,,,,,,,1004.182373046875,,
1557947980786,0.0,,,,,,,,,
1557947980806,,25.851056746175892,,,,,,,,
1557947980809,,,,7.537713407465552,-7.31211519241333,-0.5387118458747864,5.379935264587402,,195.87256232020957,32.29193052007827
1557947980850,,20.763262358183855,0.0,,,,,,,
1557947980869,,,,2.9737153942248087,-7.458166122436523,-1.2689656019210815,6.1556806564331055,,217.64284773351977,34.46638232676715
1557947980877,,,,,,,,1004.18310546875,,
1557947980885,,28.814040675340955,,,,,,,,
1557947980887,0.0,,,,,,,,,
1557947980926,,24.51762945968504,,,,,,,,
1557947980930,,,,1.687141804296235,-8.221940040588379,0.41181525588035583,3.191568374633789,,201.94226456765477,35.18793982668018
1557947980966,,27.82386486711436,0.0,,,,,,,
1557947980978,,,,,,,,1004.1767578125,,
1557947980990,,,,1.871716421603385,-8.894730567932129,0.5842030644416809,1.4916331768035889,,175.15744186855233,35.99059801771301
1557947980996,0.0,,,,,,,,,
1557947981006,,28.242509453608214,,,,,,,,
1557947981046,,24.14778239037893,0.0,,,,,,,
1557947981050,,,,2.5872725529610645,-7.5443596839904785,0.3256213665008545,1.0726351737976074,,180.72306613733792,36.493664836080555
1557947981079,,,,,,,,1004.174072265625,,
1557947981086,,24.31580729536418,,,,,,,,
1557947981095,0.0,,,,,,,,,
1557947981110,,,,,-7.94180965423584,-0.2897072434425354,2.358360767364502,,193.36630636654343,36.52694200216566
1557947981111,,,,1.5255002655209111,,,,,,
1557947981126,,18.286832738228906,0.0,,,,,,,
1557947981166,,17.023689824121288,,,,,,,,
1557947981170,,,,1.5237583702802573,-8.356019020080566,0.0071828244253993034,2.296109437942505,,188.28923551117623,37.037595939272535
1557947981179,,,,,,,,1004.169921875,,
1557947981196,0.0,,,,,,,,,
1557947981206,,18.153457928284308,0.0,,,,,,,
1557947981231,,,,1.3017020417476928,-10.312141418457031,0.8356019258499146,1.9082369804382324,,183.381580667982,37.13636417572057
1557947981246,,17.871382484091956,,,,,,,,
1557947981279,,,,,,,,1004.16748046875,,
1557947981286,,25.30398645076307,,,,,,,,
1557947981290,,,,1.661437206871421,,,,,179.58856807373311,37.9378905780728
1557947981291,,,,,-13.467795372009277,0.7996878027915955,0.17238777875900269,,167.9689819558157,
1557947981296,0.0,,,,,,,,,
1557947981326,,25.057243184368808,0.0,,,,,,,
1557947981350,,,,4.363807748911266,-14.825349807739258,1.5467015504837036,5.4996490478515625,,174.68096787205224,38.058591251130544
1557947981366,,29.338472544211328,,,,,,,,
1557947981378,,,,,,,,1004.1728515625,,
1557947981406,,26.39821777284931,0.0,,,,,,,
1557947981410,,,,6.547615828740374,-8.952193260192871,-2.7701759338378906,2.762993097305298,,201.94129468079268,39.19230872177947
1557947981413,0.0,,,,,,,,,
1557947981446,,27.189303243143552,,,,,,,,
1557947981470,,,,3.6232298113350567,-7.55154275894165,-3.3064935207366943,3.962524890899658,,200.61361518916885,38.68995158422443
1557947981477,,,,,,,,1004.166259765625,,
1557947981486,,21.30929707362316,0.0,,,,,,,
1557947981513,0.0,,,,,,,,,
1557947981526,,24.699446807104863,,,,,,,,
1557947981529,,,,,,,,,204.88671813771225,
1557947981530,,,,3.471050702295383,-9.651321411132812,-0.7757450342178345,2.1596357822418213,,194.7339288044334,39.06672640735588
1557947981566,,27.483177015953153,,,,,,,,
1557947981578,,,,,,,,1004.15771484375,,
1557947981590,,,,0.15605805050851157,-9.435836791992188,-0.7565908432006836,0.46927785873413086,,198.153449352022,39.929400887118305
1557947981606,,28.426895297481988,0.0,,,,,,,
1557947981617,0.0,,,,,,,,,
1557947981646,,25.679061851090754,,,,,,,,
1557947981651,,,,2.416637245086821,,,,,,
1557947981652,,,,,-8.049551963806152,-2.423006057739258,0.67518550157547,,187.08056523565074,41.23907732435524
1557947981678,,,,,,,,1004.154541015625,,
1557947981686,,26.244054700503906,0.0,,,,,,,
1557947981710,,,,2.2763179608442896,-6.5866498947143555,-1.35037100315094,2.3703320026397705,,192.8157248175487,40.13789212163454
1557947981717,0.0,,,,,,,,,
1557947981726,,25.730789125685884,,,,,,,,
1557947981765,,23.167700517889447,0.0,,,,,,,
1557947981770,,,,2.515419898349905,-6.873962879180908,-2.516382932662964,1.7119064331054688,,202.35072354039994,40.659107996525094
1557947981780,,,,,,,,1004.15234375,,
1557947981806,,18.597229234574915,,,,,,,,
1557947981820,0.0,,,,,,,,,
1557947981842,,,,2.0641137947679784,-7.216344356536865,-3.567469358444214,2.0638649463653564,,198.76240169766356,41.324494254311304
1557947981846,,15.904834419603537,,,,,,,,
1557947981878,,,,,,,,1004.15234375,,
1557947981886,,14.682166747231086,0.0,,,,,,,
1557947981899,,,,1.2826423058185779,-8.557138442993164,-2.4924399852752686,2.2721667289733887,,199.7131776905078,40.395688232383726
1557947981921,0.0,,,,,,,,,
1557947981927,,17.142337411498374,,,,,,,,
1557947981950,,,,2.8931459723367805,,,1.484450340270996,,,
1557947981951,,,,,-10.862824440002441,-2.853975534439087,,,184.50595274877105,40.837217159612386
1557947981966,,20.18588232648871,0.0,,,,,,,
1557947981978,,,,,,,,1004.12646484375,,
1557947982006,,21.742968720870625,,,,,,,,
1557947982010,,,,5.364985518209318,-14.083124160766602,-1.80049467086792,3.1700198650360107,,198.36984340530626,40.700790848366196
1557947982025,0.0,,,,,,,,,
1557947982046,,26.74906942729196,0.0,,,,,,,
1557947982074,,,,6.614488431795422,-10.577905654907227,-8.856422424316406,5.379935264587402,,205.48000202939784,41.11304752721991
1557947982078,,,,,,,,1004.1201171875,,
1557947982086,,26.203438276570445,,,,,,,,
1557947982126,,27.471774375006696,,,,,,,,
1557947982145,0.0,,,2.1388513498466235,-7.295355319976807,-1.733454942703247,4.620950222015381,,225.5772462658918,40.64520414230063
1557947982166,,19.124305370727622,0.0,,,,,,,
1557947982200,,,,1.849253570912126,,,,1004.1201171875,213.1497170710536,40.927695703638044
1557947982201,,,,,-8.775016784667969,-2.3032922744750977,5.652883052825928,,,
1557947982206,,23.362134653520506,,,,,,,,
1557947982246,,18.93594453077556,0.0,,,,,,,
1557947982252,,,,2.2783856110713163,-7.774210453033447,,4.034353256225586,,206.44846821219232,42.13717570080665
1557947982253,0.0,,,,,-0.9289786219596863,,,,
1557947982278,,,,,,,,1004.117431640625,,
1557947982286,,23.682531433004243,,,,,,,,
1557947982310,,,,1.6547056951774197,-7.723930358886719,-1.1731946468353271,2.4325830936431885,,191.82488293503332,42.01910868571373
1557947982326,,21.385407741732294,0.0,,,,,,,
1557947982366,,26.044115811168155,,,,,,,,
1557947982369,0.0,,,,,,,,,
1557947982370,,,,2.1923874886851578,,,1.8507744073867798,,,
1557947982371,,,,,-7.81251859664917,0.48843204975128174,,,193.5360775485533,41.93287374265237
1557947982378,,,,,,,,1004.111572265625,,
1557947982406,,29.096318227150363,,,,,,,,
1557947982442,,,,2.073115340892611,-7.769421577453613,0.5746259689331055,1.07024085521698,,199.0639818702764,41.41395364121367
1557947982447,,33.34371221157623,0.0,,,,,,,
1557947982478,,,,,,,,1004.111572265625,,
1557947982486,,19.30252304683195,,,,,,,,
1557947982492,0.0,,,1.7447277759602016,-7.915472507476807,-0.23224465548992157,1.563461422920227,,195.17177125098794,41.694128147373526
1557947982526,,16.13137998203591,0.0,,,,,,,
1557947982550,,,,,,,,,192.91830059850395,40.168867379517565
1557947982551,,,,1.747272068270208,-8.68403434753418,0.35195839405059814,0.9385557174682617,,188.55204753006,
1557947982566,,17.889071404399644,,,,,,,,
1557947982578,,,,,,,,1004.109375,,
1557947982602,0.0,,,,,,,,,
1557947982606,,23.06932933157626,,,,,,,,
1557947982607,,,0.0,,,,,,,
1557947982610,,,,1.7875994567945384,,,,,,
1557947982611,,,,,-9.364008903503418,0.8188419938087463,0.483643501996994,,185.30821310830243,39.751482865842135
1557947982648,,23.685799048072095,,,,,,,,
1557947982683,,,,2.2040968029966335,-10.498894691467285,0.5363175868988037,-0.2537931203842163,1004.10986328125,181.24837598640352,39.93927363454865
1557947982691,,19.829375097984926,,,,,,,,
1557947982713,0.0,,,,,,,,,
1557947982726,,21.725430319688947,0.0,,,,,,,
1557947982742,,,,1.8598860350939779,-11.52364444732666,2.0566821098327637,-0.32801565527915955,,185.31783001465385,38.658069992871226
1557947982766,,18.962755724016475,,,,,,,,
1557947982778,,,,,,,,1004.10986328125,,
1557947982791,,,,3.0258645264630277,-11.710397720336914,2.454131603240967,-0.31125572323799133,,187.58751553622744,37.40931223806881
1557947982806,,23.761049922915475,0.0,,,,,,,
1557947982815,0.0,,,,,,,,,
1557947982847,,21.239238285669316,,,,,,,,
1557947982859,,,,5.389255869496669,-11.73194694519043,-0.73504239320755,5.614574432373047,,209.69545818134634,36.422617845954086
1557947982882,,,,,,,,1004.111328125,,
1557947982887,,26.607611804482477,0.0,,,,,,,
1557947982910,,,,4.660022410719524,-6.919454097747803,-4.970514297485352,3.011997699737549,,204.97642584227117,35.793306583213784
1557947982926,,22.78007886125696,,,,,,,,
1557947982928,0.0,,,,,,,,,
1557947982966,,28.08827372117916,,,,,,,,
1557947982975,,,,3.61747565882784,-9.033598899841309,-3.7278859615325928,3.7685885429382324,,199.3268485306735,35.54375847186945
1557947982978,,,,,,,,1004.114013671875,,
1557947983006,,23.754178640711146,0.0,,,,,,,
1557947983041,0.0,,,0.7681730260648527,-9.866806030273438,-0.5435003638267517,1.3072741031646729,,188.48119114761028,34.985144859244144
1557947983046,,27.291675456394646,,,,,,,,
1557947983077,,,,,,,,1004.114013671875,,
1557947983086,,23.29232946819142,0.0,,,,,,,
1557947983089,,,,,,,,,194.3517523996145,
1557947983090,,,,0.9529687096701616,-9.337671279907227,-0.8858816623687744,1.0582695007324219,,192.76776322919682,33.8402658404737
1557947983126,,26.76523051153389,,,,,,,,
1557947983141,0.0,,,,,,,,,
1557947983149,,,,,-8.75107479095459,,1.7621862888336182,,194.80893794189853,
1557947983150,,,,1.525563873729238,,-3.1149516105651855,,,,33.08481776920178
1557947983166,,26.923187442549782,0.0,,,,,,,
1557947983178,,,,,,,,1004.11474609375,,
1557947983206,,23.939629795421133,,,,,,,,
1557947983210,,,,1.6980035053661815,-7.49168586730957,-2.597788095474243,2.1189332008361816,,199.44460099196453,31.307181045716476
1557947983246,,22.994143929224954,,,,,,,,
1557947983250,0.0,,,,,,,,,
1557947983273,,,,1.6684230927143422,-8.16208267211914,-2.1213274002075195,1.8938714265823364,,196.3391735235482,30.617052626974427
1557947983277,,,,,,,,1004.11474609375,,
1557947983286,,16.14354283581156,0.0,,,,,,,
1557947983326,,15.136750167782523,,,,,,,,
1557947983333,,,,1.8436663980441856,-10.257073402404785,-2.7989072799682617,1.9441511631011963,,191.17351511464585,30.509807343957807
1557947983353,0.0,,,,,,,,,
1557947983366,,19.812827496520985,0.0,,,,,,,
1557947983378,,,,,,,,1004.11474609375,,
1557947983390,,,,1.9002935810147916,-13.161328315734863,-2.695953369140625,1.9776710271835327,,189.36601483382867,30.594646047382884
1557947983406,,22.335428742587872,,,,,,,,
1557947983446,,31.112022937064992,0.0,,,,,,,
1557947983451,,,,,,,,,191.2178293819809,30.492102967232928
1557947983452,,,,4.550445518061039,-13.223579406738281,-9.079090118408203,5.485283374786377,,,
1557947983471,0.0,,,,,,,,,
1557947983477,,,,,,,,1004.110107421875,,
1557947983486,,30.409280164148015,,,,,,,,
1557947983509,,,,7.823647076828279,,,,,,
1557947983510,,,,,-6.416656494140625,-3.8643596172332764,6.560312747955322,,202.9454827529462,29.591984549907043
1557947983526,,23.26282437173406,,,,,,,,
1557947983566,,19.93666121713193,0.0,,,,,,,
1557947983573,,,,4.528728546504505,,,8.044763565063477,,,
1557947983574,0.0,,,,-6.423839092254639,-1.7765519618988037,,,235.79934835886786,30.139116186993327
1557947983577,,,,,,,,1004.102294921875,,
1557947983606,,25.18851026619576,,,,,,,,
1557947983646,,25.63777633362166,0.0,,,,,,,
1557947983656,,,,3.9594755164486677,-7.88195276260376,0.09577099233865738,4.958543300628662,,219.02056519100302,30.500131683252953
1557947983683,0.0,,,,,,,1004.102294921875,,
1557947983686,,25.74327917872118,,,,,,,,
1557947983690,,,,2.8689137596978225,-6.2777886390686035,0.2370332032442093,4.671230316162109,,213.79033417368743,30.811035835809133
1557947983726,,24.73601158139552,0.0,,,,,,,
1557947983766,,24.61352518501542,,,,,,,,
1557947983770,,,,2.7740959138137393,-7.735901832580566,-0.45730647444725037,1.3360053300857544,,214.02032030342014,30.835213306345523
1557947983778,,,,,,,,1004.095947265625,,
1557947983798,0.0,,,,,,,,,
1557947983806,,25.38165062633379,0.0,,,,,,,
1557947983810,,,,,,,,,191.37271075160015,30.969822714633548
1557947983811,,,,2.627840957079238,-8.837267875671387,-0.8834874033927917,1.6951465606689453,,192.05241019666482,
1557947983846,,20.188429121012717,,,,,,,,
1557947983880,,,,1.2743185541019526,-8.365595817565918,0.37590113282203674,3.2155110836029053,1004.09423828125,205.55602203486012,30.791459305901707
1557947983886,,19.88908650737122,,,,,,,,
1557947983909,0.0,,,,,,,,,
1557947983926,,17.682948812913736,,,,,,,,
1557947983927,,,0.0,,,,,,,
1557947983933,,,,1.6521271547885168,-9.031204223632812,0.4740664064884186,2.2242813110351562,,197.51046900393533,31.25395261010536
1557947983966,,17.302593607987752,,,,,,,,
1557947983977,,,,,,,,1004.09423828125,,
1557947983998,,,,1.405065079671683,-9.996097564697266,0.9194015264511108,2.1931557655334473,,198.0529089674394,30.679543163677526
1557947984006,,17.07961021615754,0.0,,,,,,,
1557947984018,0.0,,,,,,,,,
1557947984048,,21.876310166304357,,,,,,,,
1557947984059,,,,,,,,,200.1119787757665,31.201961905399266
1557947984060,,,,1.550715370604571,-11.674484252929688,0.08140534162521362,1.9752767086029053,,,
1557947984080,,,,,,,,1004.095947265625,,
1557947984086,,20.714728744620157,0.0,,,,,,,
1557947984110,,,,2.2067463648753067,-15.33533000946045,1.0893950462341309,6.055120944976807,,201.53704310457624,30.19729041240228
1557947984126,0.0,,,,,,,,,
1557947984127,,19.011097347142126,,,,,,,,
1557947984166,,26.20489563368755,,,,,,,,
1557947984170,,,,,,,,,216.4960453114963,29.22560476233752
1557947984171,,,,7.039792987207392,-9.720755577087402,-1.1731946468353271,2.628913640975952,,205.10070796440868,
1557947984178,,,,,,,,1004.100341796875,,
1557947984206,,24.132702952851,0.0,,,,,,,
1557947984227,0.0,,,,,,,,,
1557947984246,,19.401187710578366,,,,,,,,
1557947984247,,,,4.014059392408903,-6.792557716369629,,4.185192584991455,,213.5764399696393,
1557947984248,,,,,,-3.131711483001709,,,,29.650503823591233
1557947984278,,,,,,,,1004.09619140625,,
1557947984286,,24.88128456397268,0.0,,,,,,,
1557947984291,,,,1.0352831492824717,,,,,,
1557947984292,,,,,-9.33288288116455,-1.8603515625,3.074248790740967,,212.29330697178239,29.36336343295237
1557947984326,,25.642935877550595,,,,,,,,
1557947984345,0.0,,,,,,,,,
1557947984351,,,,1.0722498380127685,-9.277814865112305,,1.4916331768035889,,222.3848021874495,29.53865156908189
1557947984352,,,,,,-0.9768640995025635,,,,
1557947984366,,27.081722212760315,0.0,,,,,,,
1557947984379,,,,,,,,1004.094970703125,,
1557947984407,,22.41960472975854,,,,,,,,
1557947984411,,,,1.8376079994693495,-8.796566009521484,-1.5443072319030762,0.797293484210968,,208.7524686041561,28.923982868481243
1557947984447,,20.775574060191502,,,,,,,,
1557947984461,0.0,,,,,,,,,
1557947984487,,27.63382996299686,0.0,1.9764702213745151,-7.2115559577941895,-1.4317762851715088,2.1285102367401123,1004.092529296875,223.11265446616272,29.440257504829745
1557947984526,,28.779254290915667,,,,,,,,
1557947984537,,,,3.2254724023501975,,,2.7127132415771484,,236.33386530293478,
1557947984538,,,,,-5.825270652770996,-1.9082369804382324,,,243.56853827559564,30.124241486335073
1557947984561,0.0,,,,,,,,,
1557947984566,,26.074027408406714,0.0,,,,,,,
1557947984581,,,,,,,,1004.0947265625,,
1557947984591,,,,2.4557529635741107,-6.3400397300720215,-3.316070556640625,2.7342617511749268,,235.11059208296382,29.565209076767278
1557947984606,,21.027109310248548,,,,,,,,
1557947984646,,18.998744519366983,0.0,,,,,,,
1557947984654,,,,1.6387645526999268,-7.747873306274414,-4.388705730438232,2.6887705326080322,,229.9970480174287,31.01883873592047
1557947984684,0.0,,,,,,,1004.0830078125,,
1557947984686,,16.24455160661817,,,,,,,,
1557947984717,,,,3.5302084678063808,-11.037607192993164,,2.444554567337036,,246.80783745174426,
1557947984718,,,,,,-2.475680112838745,,,,30.87698071882392
1557947984726,,20.983905872728762,,,,,,,,
1557947984766,,18.92785303311637,0.0,,,,,,,
1557947984771,,,,3.3718030411021696,-12.510086059570312,-2.384697675704956,4.714327335357666,,261.0486042863024,31.55737593457122
1557947984778,,,,,,,,1004.07568359375,,
1557947984801,0.0,,,,,,,,,
1557947984806,,31.541733889286547,,,,,,,,
1557947984832,,,,7.341715819085678,-7.834067344665527,-10.37439250946045,6.543552875518799,,243.38062611115026,33.2849156575039
1557947984847,,33.99359042091386,0.0,,,,,,,
1557947984884,,,,,,,,1004.07177734375,,
1557947984886,,22.48438985827611,,,,,,,,
1557947984890,,,,7.272838793246336,-8.248276710510254,-0.8260248303413391,5.087833881378174,,242.5667271092732,33.46004855688829
1557947984911,0.0,,,,,,,,,
1557947984926,,16.470357133533657,0.0,,,,,,,
1557947984964,,,,1.8679237350726092,-5.806116580963135,-2.609759569168091,8.535589218139648,,274.222591195153,34.450243124647926
1557947984966,,17.805654813552444,,,,,,,,
1557947984996,,,,,,,,1004.072265625,,
1557947985006,,16.50897558359645,,,,,,,,
1557947985010,,,,1.9310515983914114,,,6.519610404968262,,,
1557947985011,,,,,-7.529994487762451,-0.8427847623825073,,,274.20462779763585,36.01969461159343
1557947985025,0.0,,,,,,,,,
1557947985046,,16.898593104703924,0.0,,,,,,,
1557947985074,,,,1.1903658967924358,-7.158881664276123,-1.30009126663208,4.996851444244385,,260.68506746772846,35.98104606458511
1557947985078,,,,,,,,1004.079345703125,,
1557947985086,,18.232878766757434,,,,,,,,
1557947985126,,15.50505671465528,0.0,,,,,,,
1557947985146,0.0,,,2.0799694623906233,-7.319298267364502,0.3471698462963104,3.589017868041992,,272.46403604992815,37.50081537312409
1557947985166,,17.62994807491739,,,,,,,,
1557947985194,,,,1.5819062360183782,,,4.1708269119262695,1004.0673828125,269.92474247124665,
1557947985195,,,,,-7.465348720550537,0.2657645046710968,,,,36.6386347869944
1557947985206,,12.985362429596334,0.0,,,,,,,
1557947985247,0.0,13.477945014381284,,,,,,,,
1557947985251,,,,1.6100278844847251,-7.790970325469971,-0.6440598964691162,2.9281980991363525,,258.97851738284413,37.0244735726507
1557947985278,,,,,,,,1004.06103515625,,
1557947985286,,17.177138921740184,,,,,,,,
1557947985311,,,,1.3029230487318688,,,2.597788095474243,,274.13257613208134,
1557947985312,,,,,-8.552350044250488,0.9864411950111389,,,,37.07723346741212
1557947985326,,17.353019115244187,0.0,,,,,,,
1557947985360,0.0,,,,,,,,,
1557947985366,,15.460401835398939,,,,,,,,
1557947985381,,,,0.7220028371860838,-9.146129608154297,0.5770202279090881,2.291321039199829,1004.056640625,271.06106055289416,37.16349793680369
1557947985406,,15.293302336688114,0.0,,,,,,,
1557947985442,,,,1.4971007302336288,,,,,,
1557947985443,,,,,-9.129369735717773,1.3240339756011963,1.6759923696517944,,280.82532140542594,36.878481789979894
1557947985447,,20.818422810316367,,,,,,,,
1557947985464,0.0,,,,,,,,,
1557947985478,,,,,,,,1004.061767578125,,
1557947985486,,21.871000609782527,0.0,,,,,,,
1557947985491,,,,2.0253176404702065,-10.065531730651855,1.7621862888336182,0.9624984860420227,,286.463260074678,36.961703691911396
1557947985526,,21.201895419854047,,,,,,,,
1557947985556,,,,1.819075135208598,-10.45340347290039,2.3679378032684326,0.1412622183561325,,290.0955683356691,37.32024048240187
1557947985566,,17.688695585958442,,,,,,,,
1557947985577,0.0,,,,,,,,,
1557947985579,,,,,,,,1004.05908203125,,
1557947985606,,21.60962009174905,0.0,,,,,,,
1557947985610,,,,4.803515283516801,-13.436670303344727,3.186779737472534,1.8388030529022217,,292.147842105772,37.86247152619223
1557947985646,,26.809528840414472,,,,,,,,
1557947985681,0.0,,,1.985059544993807,-10.616214752197266,-0.10534809529781342,2.3392064571380615,1004.054443359375,278.8469639425209,37.359431195860864
1557947985686,,27.151891783784098,0.0,,,,,,,
1557947985726,,26.16579696723964,,,,,,,,
1557947985742,,,,6.10172411207624,-6.560312747955322,-4.321666240692139,3.498035430908203,,265.5090456634009,38.0934310009788
1557947985766,,25.07823757636445,0.0,,,,,,,
1557947985778,,,,,,,,1004.050537109375,,
1557947985785,0.0,,,,,,,,,
1557947985790,,,,5.479225632189496,-8.47094440460205,-1.302485466003418,3.407052993774414,,273.38271698386234,39.36406948416755
1557947985806,,30.89940938876002,,,,,,,,
1557947985846,,24.668861058688464,,,,,,,,
1557947985858,,,,1.5381728956073195,-10.984932899475098,0.37590113282203674,2.1835787296295166,,297.2338605089519,38.771886296702085
1557947985882,,,,,,,,1004.048583984375,,
1557947985886,,26.056775444083996,0.0,,,,,,,
1557947985906,0.0,,,,,,,,,
1557947985911,,,,1.6556329117409878,-9.263449668884277,-1.5610672235488892,2.195549964904785,,288.98864055802017,39.59227144597737
1557947985926,,27.148432413603917,,,,,,,,
1557947985966,,18.135227441133534,0.0,,,,,,,
1557947985979,,,,1.1624529675229363,-9.306546211242676,-2.008796453475952,2.796513080596924,,307.4255033733244,39.459250203978236
1557947985980,,,,,,,,1004.0458984375,,
1557947986006,,24.25236905923871,,,,,,,,
1557947986026,0.0,,,,,,,,,
1557947986030,,,,1.0139126353915933,-9.397528648376465,-1.35037100315094,2.9641122817993164,,306.9157697706609,40.49519925273008
1557947986046,,22.178776835717038,0.0,,,,,,,
1557947986077,,,,,,,,1004.05126953125,,
1557947986086,,18.58752653215496,,,,,,,,
1557947986094,,,,2.5971111901723907,-7.929838180541992,-3.4884583950042725,3.344801902770996,,305.4153855307788,41.26172471033135
1557947986126,,21.60924618345618,,,,,,,,
1557947986134,0.0,,,,,,,,,
1557947986155,,,,2.359082841784204,-7.259441375732422,-3.2993106842041016,2.853975534439087,,315.71161908191164,42.044887978455314
1557947986166,,18.694977989464448,0.0,,,,,,,
1557947986178,,,,,,,,1004.042724609375,,
1557947986206,,12.56365345342531,,,,,,,,
1557947986210,,,,2.1123097667024577,-8.418270111083984,-2.98087215423584,2.071047782897949,,332.0441757460158,41.828821883549516
1557947986240,0.0,,,,,,,,,
1557947986247,,14.493244430611814,0.0,,,,,,,
1557947986282,,,,1.0571826947559975,-9.672870635986328,-3.3376190662384033,2.138087511062622,1004.0419921875,338.1747879129319,40.93007126101795
1557947986286,,17.24433779668776,,,,,,,,
1557947986326,,18.511785868911804,0.0,,,,,,,
1557947986347,,,,1.0710140629903835,-11.130983352661133,-2.695953369140625,2.5307483673095703,,349.1898835062829,41.67465453943734
1557947986348,0.0,,,,,,,,,
1557947986366,,22.58659540469301,,,,,,,,
1557947986377,,,,,,,,1004.0498046875,,
1557947986391,,,,7.38975264903144,-13.300196647644043,-7.56112003326416,5.906675815582275,,340.03542194284984,41.67517259146703
1557947986406,,25.093008382311982,,,,,,,,
1557947986446,,19.701159047054762,0.0,,,,,,,
1557947986456,,,,7.265390306189306,-6.067092418670654,-2.257801055908203,6.38074254989624,,346.5848152058942,41.45548451854689
1557947986457,0.0,,,,,,,,,
1557947986484,,,,,,,,1004.048828125,,
1557947986486,,22.74207609976991,,,,,,,,
1557947986511,,,,,,,,,337.92497886668053,40.782612899028194
1557947986512,,,,3.9933215656223884,-9.150918006896973,-2.078230619430542,6.103006362915039,,,
1557947986526,,23.854593400644482,0.0,,,,,,,
1557947986562,0.0,,,,,,,,,
1557947986566,,27.54329697030267,,,,,,,,
1557947986586,,,,2.5506440340438177,-7.4533772468566895,-0.5626545548439026,4.283357620239258,1004.04345703125,346.6788669107653,40.7650870904796
1557947986606,,27.06675699186555,0.0,,,,,,,
1557947986642,,,,2.165240356282894,-7.156487464904785,-0.15083931386470795,2.7797529697418213,,358.54881585386534,40.62660142834065
1557947986647,,22.335874483259232,,,,,,,,
1557947986676,0.0,,,,,,,,,
1557947986678,,,,,,,,1004.050537109375,,
1557947986687,,17.56336772382922,0.0,,,,,,,
1557947986706,,,,1.934370035340774,-7.877163887023926,-0.79011070728302,1.9058427810668945,,5.908155040082875,40.52674503902645
1557947986727,,24.048036677093055,,,,,,,,
1557947986767,,27.840011569338436,,,,,,,,
1557947986775,,,,1.1501978144308362,,,2.2817440032958984,,5.653833373224245,
1557947986776,,,,,-8.626572608947754,-0.7853221297264099,,,,40.8416698059525
1557947986777,0.0,,,,,,,,,
1557947986779,,,,,,,,1004.047119140625,,
1557947986806,,19.96834687774799,0.0,,,,,,,
1557947986811,,,,1.1420162025511473,,,2.9952378273010254,,7.277185777602369,39.99691871894497
1557947986812,,,,,-8.669669151306152,0.84517902135849,,,1.997190428880856,
1557947986847,,17.22982564027395,,,,,,,,
1557947986870,,,,1.8861433142845385,-10.764659881591797,0.7398309111595154,1.5850099325180054,,12.251715856733824,40.008708163350484
1557947986877,,,,,,,,1004.036376953125,,
1557947986886,,18.91693555612084,0.0,,,,,,,
1557947986895,0.0,,,,,,,,,
1557947986926,,28.029059158047595,,,,,,,,
1557947986930,,,,3.208714516194226,-12.306572914123535,1.0893950462341309,0.9505270719528198,,17.71596537671337,38.96832504138152
1557947986966,,28.35372013760915,0.0,,,,,,,
1557947986986,,,,,,,,1004.036376953125,,
1557947986990,,,,5.861844531670604,-15.256319046020508,0.07422251999378204,3.438178539276123,,10.855532129055803,39.843161081815
1557947987006,,24.642118303520505,,,,,,,,
1557947987016,0.0,,,,,,,,,
1557947987046,,24.916848086547358,,,,,,,,
1557947987076,,,,3.273523297699073,,,,,,
1557947987077,,,,,-9.028810501098633,-1.5107873678207397,4.415042877197266,,352.24708386274347,39.74387398081996
1557947987078,,,,,,,,1004.04248046875,,
1557947987086,,22.016355154689776,0.0,,,,,,,
1557947987110,,,,2.3865278451742893,,,,,358.3774816257526,41.68976763782453
1557947987111,,,,,-6.955368518829346,-3.4214186668395996,3.622537851333618,,,
1557947987126,,19.847976650405275,,,,,,,,
1557947987138,0.0,,,,,,,,,
1557947987166,,17.955450579920193,0.0,,,,,,,
1557947987170,,,,1.015332223801018,-9.766246795654297,-1.441353440284729,1.7885233163833618,,16.00055653647547,43.008156235747464
1557947987178,,,,,,,,1004.03271484375,,
1557947987206,,28.714663687399803,,,,,,,,
1557947987232,,,,,,,,,16.820546359544892,43.50103238031697
1557947987239,,,,0.8667083997643126,-8.820508003234863,-1.3695251941680908,0.8571503758430481,,21.424022143147226,
1557947987246,,26.01367004932477,0.0,,,,,,,
1557947987261,0.0,,,,,,,,,
1557947987286,,23.859718716283723,,,,,,,,
1557947987291,,,,1.5575528218235122,,,1.2162915468215942,1004.0302734375,21.602428391815238,44.11909819337574
1557947987292,,,,,-6.574678421020508,-1.9249969720840454,,,,
1557947987326,,31.960285347611904,,,,,,,,
1557947987353,,,,3.100982842460338,,,,,19.80943714034248,45.15521012548893
1557947987354,,,,,-6.483695983886719,-0.9936240315437317,2.0590763092041016,,,
1557947987366,,24.333552242949764,0.0,,,,,,,
1557947987384,0.0,,,,,,,1004.028564453125,,
1557947987406,,21.382113712337087,,,,,,,,
1557947987414,,,,3.01537784492565,-7.178035736083984,-2.667222023010254,2.609759569168091,,12.45711842809635,45.62979332053825
1557947987446,,19.32294255644353,0.0,,,,,,,
1557947987470,,,,1.8537567271279671,,,,,15.183382458891401,45.50812993702996
1557947987471,,,,,-10.1421480178833,-3.1843855381011963,1.953728199005127,,20.777553275941955,
1557947987478,,,,,,,,1004.011474609375,,
1557947987486,,18.22291902619745,,,,,,,,
1557947987499,0.0,,,,,,,,,
1557947987526,,21.196235350017098,0.0,,,,,,,
1557947987530,,,,3.5175190210539817,-12.251503944396973,,1.7095122337341309,,20.543834447827862,
1557947987531,,,,,,-2.4110348224639893,,,,45.57543853301031
1557947987566,,27.80429169110303,,,,,,,,
1557947987585,,,,,,,,1004.013427734375,,
1557947987590,,,,7.493442975166376,-14.949851989746094,-5.427821159362793,6.004841327667236,,12.707490964954218,45.26827842715164
1557947987606,,29.563652903316296,,,,,,,,
1557947987613,0.0,,,,,,,,,
1557947987646,,22.74468105907117,0.0,,,,,,,
1557947987668,,,,7.468204238934776,-8.140534400939941,-1.2378400564193726,5.008822917938232,,11.356838985830734,45.041461188666304
1557947987678,,,,,,,,1004.0087890625,,
1557947987686,,23.158585306946343,,,,,,,,
1557947987709,,,,2.389057717776954,,,5.348809719085693,,358.1408391565086,45.03906104672598
1557947987710,,,,,-7.439012050628662,-0.9433442950248718,,,354.19834468455053,
1557947987726,,26.109267964669172,0.0,,,,,,,
1557947987731,0.0,,,,,,,,,
1557947987766,,22.37164301081464,,,,,,,,
1557947987789,,,,1.63082143773708,,,,,,
1557947987790,,,,,-8.152505874633789,0.34477555751800537,2.6265194416046143,1004.0146484375,10.015073936591136,45.14811468589646
1557947987806,,31.206416305675862,0.0,,,,,,,
1557947987830,,,,1.7952679953109487,-7.934626579284668,-0.4142095446586609,1.4150164127349854,,18.152002945779657,44.416374386976756
1557947987846,,32.76491894081334,,,,,,,,
1557947987849,0.0,,,,,,,,,
1557947987878,,,,,,,,1004.00439453125,,
1557947987886,,22.242646128106983,,,,,,,,
1557947987908,,,,1.822752859839306,-6.663266658782959,-0.06225114315748215,0.706311047077179,,15.82101818395256,43.83733813316155
1557947987926,,19.37732765188335,,,,,,,,
1557947987927,,,0.0,,,,,,,
1557947987966,0.0,18.633734459453418,,1.5926884874696263,-8.475732803344727,0.9289786219596863,2.2170984745025635,,8.459792905028678,44.69484491620298
1557947987978,,,,,,,,1003.99462890625,,
1557947988006,,17.842589641657906,0.0,,,,,,,
1557947988018,,,,1.173994868109695,-8.877970695495605,0.6081457734107971,1.7310607433319092,,10.899033603879616,
1557947988019,,,,,,,,,,44.54703992233014
1557947988046,,11.924391202997274,,,,,,,,
1557947988072,0.0,,,1.2231308378568575,-9.90272045135498,0.5075862407684326,2.1237218379974365,,14.224685154157385,44.17862247472923
1557947988078,,,,,,,,1003.992431640625,,
1557947988086,,15.325276148527697,0.0,,,,,,,
1557947988126,,20.36356814912965,,,,,,,,
1557947988129,,,,,,,,,14.554069319333962,43.80435544962181
1557947988130,,,,0.8853736118993524,-10.647339820861816,0.8906702399253845,0.991229772567749,,20.97900629041692,
1557947988166,,22.227149969014533,,,,,,,,
1557947988185,0.0,,,,,,,1003.992431640625,,
1557947988189,,,,3.816093752199195,-13.249917030334473,-0.15802213549613953,1.4365649223327637,,22.193420755034367,43.79317739138861
1557947988206,,22.94812266112669,0.0,,,,,,,
1557947988246,,25.639698442661654,,,,,,,,
1557947988250,,,,6.640470471547637,-14.868446350097656,1.362342357635498,5.707951068878174,,2.857953279644107,43.4453854484024
1557947988277,,,,,,,,1003.992431640625,,
1557947988286,,24.643251022197123,0.0,,,,,,,
1557947988294,0.0,,,,,,,,,
1557947988315,,,,6.600681223536408,-8.827691078186035,-2.9880549907684326,2.1548473834991455,,2.19394299254634,43.32340570128611
1557947988325,,19.020177000417632,,,,,,,,
1557947988365,,16.934647229949967,0.0,,,,,,,
1557947988375,,,,2.5770505573611304,,,,,,
1557947988376,,,,,-8.008849143981934,-2.1859729290008545,2.755810260772705,,18.94262124787076,43.64425711621959
1557947988378,,,,,,,,1003.9921875,,
1557947988397,0.0,,,,,,,,,
1557947988406,,15.166148097378054,,,,,,,,
1557947988430,,,,0.9347286907316728,-9.917086601257324,-1.4652961492538452,2.176395893096924,,15.514658586468045,44.89178912935797
1557947988446,,21.126935176582357,,,,,,,,
1557947988478,,,,,,,,1003.9921875,,
1557947988486,,22.76740479394505,0.0,,,,,,,
1557947988491,,,,1.8724727128489134,-9.258660316467285,-0.8858816623687744,0.241821750998497,,27.854790388234107,
1557947988492,,,,,,,,,,44.537987517757905
1557947988513,0.0,,,,,,,,,
1557947988526,,24.362248686247725,,,,,,,,
1557947988562,,,,2.661375239817613,-7.00085973739624,-1.5562785863876343,1.3671308755874634,,22.06551180244753,46.04893403311241
1557947988566,,24.42414881531125,0.0,,,,,,,
1557947988584,,,,,,,,1003.981201171875,,
1557947988606,,24.271645333392613,,,,,,,,
1557947988610,,,,2.594495551263741,-6.004841327667236,,1.8795057535171509,,18.79581145430319,45.883761551534135
1557947988611,,,,,,-1.769369125366211,,,,
1557947988626,0.0,,,,,,,,,
1557947988646,,23.703947470520177,0.0,,,,,,,
1557947988670,,,,1.9755778517583544,,,,,,
1557947988671,,,,,-7.506051540374756,-3.3567733764648438,2.5858168601989746,,13.213931562664072,46.22671883298361
1557947988678,,,,,,,,1003.980712890625,,
1557947988686,,22.798962723912688,,,,,,,,
1557947988726,,22.61837177333271,,,,,,,,
1557947988731,,,,,,,1.331216812133789,,,
1557947988732,0.0,,,1.8303294787825137,-9.608224868774414,-2.2242813110351562,,,22.53707660048167,46.22652447022767
1557947988770,,18.37107941950663,0.0,,,,,,,
1557947988783,,,,,,,,1003.980712890625,,
1557947988790,,,,2.0720601317027674,-10.336084365844727,-2.818061351776123,1.3575538396835327,,23.15955955086912,45.47813960545514
1557947988806,,13.030441470890802,,,,,,,,
1557947988846,,22.09174458177873,0.0,,,,,,,
1557947988851,,,,3.1574950831141666,,,1.7095122337341309,,,
1557947988852,0.0,,,,-12.091087341308594,-1.8028889894485474,,,20.23310182172736,44.45028032940073
1557947988878,,,,,,,,1003.982421875,,
1557947988886,,25.430398278977822,,,,,,,,
1557947988918,,,,7.143648338095118,-13.518075942993164,-6.363982677459717,6.244268894195557,,10.216560248238295,43.94712305504615
1557947988926,,22.717481199688194,0.0,,,,,,,
1557947988963,0.0,,,,,,,,,
1557947988966,,19.433789722245763,,,,,,,,
1557947988970,,,,3.5054462837670846,-6.5914387702941895,-0.03591412305831909,4.429408550262451,,355.7865570463094,43.75876075158023
1557947988978,,,,,,,,1003.988037109375,,
1557947989006,,21.54574392230147,,,,,,,,
1557947989030,,,,,,,,,357.20118207130304,43.56293254249848
1557947989031,,,,3.235787051178766,-8.63136100769043,-0.821236252784729,4.635315895080566,,4.633400976790256,
1557947989046,,20.660363076134487,0.0,,,,,,,
1557947989075,0.0,,,,,,,,,
1557947989078,,,,,,,,1003.988037109375,,
1557947989086,,30.283701900018126,,,,,,,,
1557947989099,,,,1.6966606440309204,-9.208380699157715,0.6967339515686035,2.3727264404296875,,18.483337129964298,42.85319037900423
1557947989126,,22.79800625909388,0.0,,,,,,,
1557947989167,,21.72640653563743,,1.2814100212094701,-8.379961967468262,-0.2705530524253845,0.8643332123756409,,15.311568034139611,42.831005923304
1557947989178,,,,,,,,1003.978271484375,,
1557947989188,0.0,,,,,,,,,
1557947989206,,22.9962192099439,0.0,,,,,,,
1557947989210,,,,2.583252218470151,-7.3647894859313965,0.7494080066680908,1.3958622217178345,,19.244454137482762,41.55423282157929
1557947989246,,20.82040030946425,,,,,,,,
1557947989276,,,,2.0003531859398618,,,,,,
1557947989277,,,,,-8.054340362548828,0.8571503758430481,1.4557191133499146,,18.483813535658896,41.80471793368049
1557947989278,,,,,,,,1003.985595703125,,
1557947989286,,22.452929918463205,0.0,,,,,,,
1557947989304,0.0,,,,,,,,,
1557947989326,,16.392583002734664,,,,,,,,
1557947989330,,,,1.9790011353453338,,,1.671203851699829,,23.318101901883438,41.51332296739408
1557947989331,,,,,-9.529213905334473,0.6033572554588318,,,,
1557947989366,,14.195605274753735,,,,,,,,
1557947989379,,,,,,,,1003.985595703125,,
1557947989406,0.0,25.884991031178615,0.0,0.8464427295222722,-10.635368347167969,1.331216812133789,1.381496548652649,,25.443588469699705,40.339191693863704
1557947989446,,25.3640167732743,,,,,,,,
1557947989457,,,,3.2768248737233057,-12.658531188964844,0.8691217303276062,1.1085492372512817,,31.108721537132112,40.46749731629312
1557947989486,,23.052794539754927,0.0,,,,,,,
1557947989489,,,,,,,,1003.978515625,,
1557947989519,0.0,,,3.1678692558648027,-15.29462718963623,0.6249057054519653,3.8883023262023926,,33.197861253280166,40.63546150066555
1557947989526,,23.078306421700717,,,,,,,,
1557947989566,,19.9329623711034,0.0,,,,,,,
1557947989577,,,,1.9851427770620569,-9.088666915893555,,3.0311520099639893,,21.92249959405848,
1557947989578,,,,,,-1.1468576192855835,,,,39.359496654339154
1557947989579,,,,,,,,1003.961181640625,,
1557947989606,,18.117110017505812,,,,,,,,
1557947989629,0.0,,,,,,,,,
1557947989631,,,,3.6224278499560496,-7.778998851776123,-2.796513080596924,2.8443984985351562,,36.378553991255444,39.46034373416443
1557947989646,,16.811335120911693,,,,,,,,
1557947989683,,,,,,,,1003.961181640625,,
1557947989686,,17.951033049457923,0.0,,,,,,,
1557947989690,,,,3.4338359378466055,-9.265843391418457,-0.1245022863149643,1.5754327774047852,,52.43789967346453,39.47229359776661
1557947989726,,20.526250269935634,,,,,,,,
1557947989731,0.0,,,,,,,,,
1557947989753,,,,1.361444235711439,-8.746285438537598,0.0071828244253993034,1.1468576192855835,,39.51674929221497,39.08363233180305
1557947989766,,19.11667831338324,0.0,,,,,,,
1557947989778,,,,,,,,1003.95751953125,,
1557947989806,,17.465583031056482,,,,,,,,
1557947989818,,,,2.2126529360570526,-7.6712565422058105,-1.0941835641860962,1.4868446588516235,,44.97060411805137,39.50556755037725
1557947989840,0.0,,,,,,,,,
1557947989846,,21.901410508968596,0.0,,,,,,,
1557947989870,,,,2.1388522416095013,,,1.9585168361663818,,43.407860251047,39.34344150308462
1557947989871,,,,,,-1.3575538396835327,,,,
1557947989878,,,,,,,,1003.94677734375,,
1557947989886,,25.603763865550384,,,,,,,,
1557947989926,,22.315554047332434,,,,,,,,
1557947989930,,,,1.404004189838233,,,,,,
1557947989931,,,,,-7.877163887023926,-1.5754327774047852,3.0622775554656982,,33.1987252722102,39.92453307022195
1557947989948,0.0,,,,,,,,,
1557947989966,,19.533032038442688,0.0,,,,,,,
1557947989979,,,,,,,,1003.94677734375,,
1557947990002,,,,1.0820689831706225,,,2.42061185836792,,38.19428123492793,
1557947990003,,,,,-9.59385871887207,-1.5131816864013672,,,,40.038345712676964
1557947990006,,15.449464364661978,,,,,,,,
1557947990046,,17.7083531988505,0.0,,,,,,,
1557947990051,,,,2.9147179405935275,-11.049578666687012,-1.0175668001174927,1.2593885660171509,,40.47836479527189,39.26609149410144
1557947990052,0.0,,,,,,,,,
1557947990078,,,,,,,,1003.94287109375,,
1557947990086,,21.913074540542468,,,,,,,,
1557947990119,,,,2.3492852524128676,-11.061549186706543,-0.6009629964828491,4.156461238861084,,26.270814878194756,39.77393492398974
1557947990126,,24.504699325502827,0.0,,,,,,,
1557947990164,0.0,,,,,,,,,
1557947990167,,25.191528402237225,,,,,,,,
1557947990187,,,,2.2328872529337356,-13.486949920654297,-6.289760112762451,6.636929988861084,1003.934814453125,28.576937751443097,39.94729467971246
1557947990206,,23.61316596612393,,,,,,,,
1557947990231,,,,7.487280932550845,-7.331269264221191,0.699128270149231,4.3863115310668945,,43.397744740886196,39.79126487552623
1557947990246,,22.517333792621884,0.0,,,,,,,
1557947990278,0.0,,,,,,,1003.934814453125,,
1557947990286,,21.230067098019312,,,,,,,,
1557947990301,,,,2.230490342017315,-8.016032218933105,0.2609759569168091,4.970514297485352,,15.761474302315662,40.540733963918974
1557947990326,,20.269332978484154,0.0,,,,,,,
1557947990366,,20.155536292407326,,,,,,,,
1557947990372,,,,1.9996930721328725,-8.066311836242676,0.3064671754837036,1.5059988498687744,,38.138871325286175,39.749398328380586
1557947990378,,,,,,,,1003.927490234375,,
1557947990404,0.0,,,,,,,,,
1557947990407,,21.42229442970328,0.0,,,,,,,
1557947990410,,,,2.7947265215511212,-7.134938716888428,0.3184385597705841,1.0127782821655273,,40.187344095115975,40.3032542888079
1557947990446,,22.952965087722443,,,,,,,,
1557947990471,,,,2.7455858002279903,-6.378347873687744,0.8810931444168091,1.5969812870025635,,39.36129077161087,39.231603955286104
1557947990478,,,,,,,,1003.935546875,,
1557947990486,,21.19765573073115,,,,,,,,
1557947990527,,22.55763257325433,0.0,,,,,,,
1557947990533,0.0,,,3.2761947199856296,-7.994483470916748,0.8140534162521362,2.0878076553344727,,29.923215848176767,39.63720939721701
1557947990566,,18.5299905190642,,,,,,,,
1557947990589,,,,,,,,1003.935546875,,
1557947990590,,,,1.3747389719025263,-9.636956214904785,,1.9848538637161255,,31.742228412840007,
1557947990591,,,,,,1.582615613937378,,,,40.088845258959246
1557947990606,,17.78758116272766,0.0,,,,,,,
1557947990645,0.0,,,,,,,,,
1557947990646,,23.60946791323146,,,,,,,,
1557947990674,,,,1.367958766828935,-9.878777503967285,0.4357580244541168,1.314456820487976,,33.86783450896672,39.67687968102501
1557947990678,,,,,,,,1003.921630859375,,
1557947990686,,14.613525185015419,0.0,,,,,,,
1557947990710,,,,1.2084679802601164,-9.572310447692871,1.1205205917358398,1.7238779067993164,,36.786637303596194,39.66095309348747
1557947990726,,19.07218746818433,,,,,,,,
1557947990748,0.0,,,,,,,,,
1557947990766,,27.13127522171024,,,,,,,,
1557947990771,,,,3.3491539470364313,-12.548394203186035,-0.0071828244253993034,1.2474172115325928,,47.2598820372591,40.335934157103296
1557947990777,,,,,,,,1003.920654296875,,
1557947990806,,21.8815653490893,0.0,,,,,,,
1557947990830,,,,6.277137738724392,-15.048017501831055,1.6496553421020508,4.838829517364502,,34.147646868694665,40.29717907921034
1557947990846,,21.962210031119117,,,,,,,,
1557947990867,0.0,,,,,,,,,
1557947990878,,,,,,,,1003.918701171875,,
1557947990886,,28.38024434713892,0.0,,,,,,,
1557947990892,,,,2.5098859824922495,-11.892362594604492,-0.8379961848258972,2.322446584701538,,45.691322264176506,40.031017663328825
1557947990926,,29.85195235276478,,,,,,,,
1557947990953,,,,2.4057058734733774,-6.6177754402160645,-2.138087511062622,3.876330852508545,,40.978542963286486,39.83864371794707
1557947990966,,19.55147030900473,0.0,,,,,,,
1557947990973,0.0,,,,,,,,,
1557947990978,,,,,,,,1003.91650390625,,
1557947991006,,20.054558174316014,,,,,,,,
1557947991010,,,,1.0884773685624147,-8.997684478759766,0.11013664305210114,3.04072904586792,,29.45424481447992,40.18517536804279
1557947991046,,20.444348688640623,,,,,,,,
1557947991077,0.0,,,1.483218575799741,-9.687235832214355,-0.8954587578773499,0.8523618578910828,,44.704168683812895,41.1550130574504
1557947991078,,,,,,,,1003.918212890625,,
1557947991086,,20.800400401229027,0.0,,,,,,,
1557947991126,,21.204302915544982,,,,,,,,
1557947991139,,,,1.7322232069051176,-8.126168251037598,-0.9768640995025635,1.0103839635849,,43.91890183493655,41.74387565269243
1557947991166,,20.047039101478035,0.0,,,,,,,
1557947991180,,,,,,,,1003.914794921875,,
1557947991194,0.0,,,2.8161394096025156,-6.684815406799316,-1.1899546384811401,1.8172545433044434,,37.00253958326033,40.806837248956434
1557947991206,,22.50583182013679,,,,,,,,
1557947991246,,25.57339399750611,0.0,,,,,,,
1557947991275,,,,2.880981856506481,-6.363982677459717,-1.8795057535171509,2.8132729530334473,,27.98403293525638,41.576752471158386
1557947991278,,,,,,,,1003.912841796875,,
1557947991285,,17.396414001575053,,,,,,,,
1557947991302,0.0,,,,,,,,,
1557947991309,,,,1.7371180382099303,-8.0830717086792,-3.7422516345977783,2.449343204498291,,44.64145047175924,
1557947991310,,,,,,,,,,41.51158752596416
1557947991326,,15.460051702388515,,,,,,,,
1557947991366,,18.18707547258511,0.0,,,,,,,
1557947991378,,,,1.3524519799357855,-8.66248607635498,-3.510006904602051,2.1476645469665527,1003.906494140625,41.97436063861227,43.20275007543861
1557947991403,0.0,,,,,,,,,
1557947991406,,17.98229280869414,,,,,,,,
1557947991429,,,,1.8115597621021176,,,,,,
1557947991430,,,,,-9.584281921386719,-2.7773587703704834,1.7981003522872925,,39.11272652733578,42.29467807865988
1557947991446,,19.31781786541562,0.0,,,,,,,
1557947991477,,,,,,,,1003.9033203125,,
1557947991485,,19.598792823449983,,,,,,,,
1557947991493,,,,4.320210516003577,-12.277841567993164,-1.9178141355514526,1.0965778827667236,,36.59431283694698,43.46439802131425
1557947991516,0.0,,,,,,,,,
1557947991526,,24.350420356047316,0.0,,,,,,,
1557947991563,,,,3.9227165140044424,-12.93387222290039,-6.306519985198975,6.94100284576416,,35.6297262016011,43.06503767558667
1557947991567,,26.167659728639606,,,,,,,,
1557947991586,,,,,,,,1003.89208984375,,
1557947991606,,28.5768455459367,,,,,,,,
1557947991609,,,,6.576157663056368,,,,,31.913526142129342,43.642854305913175
1557947991610,,,,,-9.703995704650879,-2.6791934967041016,4.297723293304443,,29.181955908122802,
1557947991631,0.0,,,,,,,,,
1557947991646,,27.87973453528391,0.0,,,,,,,
1557947991678,,,,4.1396699775698735,-6.165257453918457,-1.721483588218689,6.32088565826416,1003.888916015625,9.837646112521725,43.186163812386994
1557947991686,,21.081379927708873,,,,,,,,
1557947991726,,25.198755945382764,0.0,,,,,,,
1557947991732,0.0,,,1.1678371801874183,-8.63136100769043,-0.5674431324005127,3.2466366291046143,,27.5201521000385,43.20020671583101
1557947991766,,21.497269278301324,,,,,,,,
1557947991788,,,,,,,,1003.88720703125,,
1557947991790,,,,2.332902959460963,-7.055927753448486,-0.03830839693546295,3.2059340476989746,,24.426404255102852,42.631677202791934
1557947991807,,19.889692626534686,0.0,,,,,,,
1557947991846,,20.927719496187848,,,,,,,,
1557947991856,0.0,,,2.2764214403257164,-7.101418972015381,-0.08619388937950134,1.4389591217041016,,25.14652134458106,42.57912069370472
1557947991886,,25.5018049771625,,,,,,,,
1557947991889,,,,,,,,1003.88134765625,,
1557947991923,,,,1.6677323113488252,-8.166871070861816,,1.752609133720398,,35.04338178211219,
1557947991924,,,,,,0.13407939672470093,,,,41.52641522807304
1557947991926,,26.063813651106052,0.0,,,,,,,
1557947991960,0.0,,,,,,,,,
1557947991967,,21.532685645086236,,,,,,,,
1557947991991,,,,1.0878195063084013,-8.655303001403809,0.483643501996994,2.358360767364502,1003.882568359375,30.92644769384657,42.06415064467615
1557947992007,,20.720906001583806,0.0,,,,,,,
1557947992030,,,,0.9644570753434565,-8.933039665222168,0.3830839693546295,2.231464147567749,,33.76985886041746,42.145718696232926
1557947992046,,19.572222103982046,,,,,,,,
1557947992083,0.0,,,,,,,1003.874267578125,,
1557947992086,,19.30162677461847,0.0,,,,,,,
1557947992089,,,,1.4356662830334261,-9.895537376403809,-0.1604164093732834,1.6305011510849,,43.94435111978402,41.7855526845838
1557947992126,,18.695011239052512,,,,,,,,
1557947992161,,,,2.6322850454589592,-11.166897773742676,1.283331274986267,1.5275473594665527,,41.84161932718763,41.8827498198328
1557947992166,,27.889443661444705,0.0,,,,,,,
1557947992186,,,,,,,,1003.8759765625,,
1557947992187,0.0,,,,,,,,,
1557947992206,,25.70227134837614,,,,,,,,
1557947992210,,,,2.36922435187996,-14.020873069763184,,3.466909885406494,,42.70463763448083,42.37083280280147
1557947992211,,,,,,0.6440598964691162,,,,
1557947992246,,27.057473823654824,,,,,,,,
1557947992279,,,,4.738865702310127,-14.255512237548828,0.4788549542427063,2.485257148742676,1003.876220703125,43.91070560793253,40.75011638563889
1557947992286,,26.404262218559996,0.0,,,,,,,
1557947992300,0.0,,,,,,,,,
1557947992326,,27.599944168261146,,,,,,,,
1557947992329,,,,3.1743844163923605,-7.084659099578857,-1.9178141355514526,3.186779737472534,,45.968303510493456,41.05087523585089
1557947992366,,17.71035578641397,0.0,,,,,,,
1557947992377,,,,,,,,1003.87646484375,,
1557947992394,,,,1.9218838078987066,-8.274613380432129,-0.541106104850769,3.5746521949768066,,34.83360959722819,42.228066159846136
1557947992406,,22.149068943542474,,,,,,,,
1557947992417,0.0,,,,,,,,,
1557947992446,,22.751049426735293,0.0,,,,,,,
1557947992466,,,,0.9305422083686659,-8.887548446655273,0.1604164093732834,2.3056867122650146,,42.69670778485448,41.32906835562353
1557947992477,,,,,,,,1003.873046875,,
1557947992486,,26.96891553392313,,,,,,,,
1557947992517,,,,1.4512108942590285,-8.485309600830078,-0.9433442950248718,1.2474172115325928,,52.69179146529228,41.36946557024135
1557947992518,0.0,,,,,,,,,
1557947992526,,24.05004277488314,,,,,,,,
1557947992567,,18.82123594392511,0.0,,,,,,,
1557947992573,,,,2.2037536589905327,-7.769421577453613,-1.211503028869629,1.1851660013198853,,59.91706951274983,41.2051484245902
1557947992578,,,,,,,,1003.861083984375,,
1557947992607,,18.123713814972515,,,,,,,,
1557947992629,,,,1.8348183325249807,,,1.5754327774047852,,54.271764484477956,
1557947992630,,,,,-7.829278469085693,-0.2968900799751282,,,,40.8876982590042
1557947992634,0.0,,,,,,,,,
1557947992646,,14.351676952021005,0.0,,,,,,,
1557947992678,,,,,,,,1003.86865234375,,
1557947992686,,11.710395386055266,,,,,,,,
1557947992690,,,,1.82910677638739,-8.480521202087402,-0.6895511150360107,1.223474383354187,,61.3197513116495,40.639093602878575
1557947992726,,14.811971730028652,0.0,,,,,,,
1557947992737,0.0,,,,,,,,,
1557947992761,,,,1.2861516280597391,,,,,,
1557947992762,,,,,-8.672063827514648,-0.6703969240188599,0.8547561168670654,,66.15645414974563,41.05670652812876
1557947992767,,13.787727028610501,,,,,,,,
1557947992778,,,,,,,,1003.86572265625,,
1557947992806,,14.944086093875871,,,,,,,,
1557947992814,,,,2.5500670480328336,,,-1.2378400564193726,,68.26013192354208,
1557947992815,,,,,-9.495694160461426,0.028731297701597214,,,,40.80304201745774
1557947992846,,24.45610380257631,0.0,,,,,,,
1557947992854,0.0,,,,,,,,,
1557947992873,,,,1.6765821983694698,-10.029617309570312,-0.10774236917495728,-1.118126392364502,,75.38522134115931,40.499821131445486
1557947992877,,,,,,,,1003.863525390625,,
1557947992886,,23.42164095234392,,,,,,,,
1557947992926,,21.01508211127783,0.0,,,,,,,
1557947992929,,,,4.055947991694189,-10.017645835876465,-3.7685885429382324,2.0542876720428467,,99.67271833156428,40.83814297817079
1557947992954,0.0,,,,,,,,,
1557947992967,,20.978720758839003,,,,,,,,
1557947992977,,,,,,,,1003.860107421875,,
1557947992989,,,,,,,,,106.42039881640329,41.75418020711483
1557947992990,,,,3.3801941638682855,-11.238725662231445,0.011971374042332172,1.6927522420883179,,77.86762627424372,
1557947993006,,23.27734152835045,0.0,,,,,,,
1557947993046,,26.028532571739753,,,,,,,,
1557947993059,,,,4.490539779332282,,,4.515602111816406,,,
1557947993060,0.0,,,,-8.59305191040039,2.2793495655059814,,,41.9933041682753,41.67651113092463
1557947993080,,,,,,,,1003.856201171875,,
1557947993086,,21.038075980833103,,,,,,,,
1557947993109,,,,2.825110752331571,,,4.312088966369629,,,
1557947993110,,,,,,,,,,40.67721060405575
1557947993126,,19.21320709081331,0.0,,,,,,,
1557947993161,0.0,,,,,,,,,
1557947993166,,22.04027648333922,,,,,,,,
1557947993179,,,,1.3809753541922511,-10.623396873474121,0.05267404764890671,1.6065584421157837,1003.859375,83.95822207035997,41.97328962976224
1557947993206,,18.898794878102542,0.0,,,,,,,
1557947993229,,,,0.5038985022607201,,,2.264983892440796,,84.51765554451907,
1557947993230,,,,,-9.284997940063477,0.48124924302101135,,,,42.15596701987994
1557947993246,,15.119515337255653,,,,,,,,
1557947993264,0.0,,,,,,,,,
1557947993286,,15.674425027155998,0.0,,,,,,,
1557947993288,,,,,,,,1003.856201171875,,
1557947993289,,,,,,,,,92.7203234169217,41.74223658975569
1557947993290,,,,0.35659170410623064,,,2.4637088775634766,,95.0856179264971,
1557947993291,,,,,-8.63375473022461,0.1652049571275711,,,,
1557947993326,,15.263216914133722,,,,,,,,
1557947993366,,,,1.1777704590793956,-9.0814847946167,1.3455824851989746,1.8052831888198853,,86.82502321974357,42.39606144808699
1557947993367,0.0,,,,,,,,,
1557947993368,,21.364041674867494,,,,,,,,
1557947993377,,,,,,,,1003.86474609375,,
1557947993406,,22.825542969908803,0.0,,,,,,,
1557947993414,,,,0.6495196722676724,-9.536396980285645,0.13407939672470093,1.3791022300720215,,99.23604384735785,42.035385445789736
1557947993446,,18.984366105109252,,,,,,,,
1557947993483,0.0,,,1.1410954171619985,-9.725543975830078,1.1636176109313965,1.2450228929519653,1003.861328125,96.38201515172216,42.28782840897347
1557947993486,,18.031961285744256,0.0,,,,,,,
1557947993527,,18.372046568077455,,,,,,,,
1557947993530,,,,1.1290791521024295,-10.245101928710938,1.1588289737701416,0.5506832003593445,,96.19445132692448,41.82933926696359
1557947993567,,19.03046900084631,0.0,,,,,,,
1557947993578,,,,,,,,1003.86474609375,,
1557947993585,0.0,,,,,,,,,
1557947993589,,,,3.2140995244187214,-10.771842002868652,2.9042553901672363,0.2944957911968231,,89.13111364959332,41.89555535655526
1557947993607,,21.316993896501163,,,,,,,,
1557947993646,,19.63094170863007,,,,,,,,
1557947993649,,,,4.200447903319476,,,2.5259599685668945,,,
1557947993650,,,,,-12.93387222290039,2.2242813110351562,,,94.00119562216332,41.32345086120212
1557947993677,,,,,,,,1003.862060546875,,
1557947993686,,20.818422810316367,0.0,,,,,,,
1557947993687,0.0,,,,,,,,,
1557947993710,,,,1.2690335750782575,-10.297776222229004,0.5219519138336182,1.8172545433044434,,101.47321766848222,40.924397671339825
1557947993726,,25.156433465904225,,,,,,,,
1557947993766,,24.937203729232003,0.0,,,,,,,
1557947993773,,,,1.0696103653998272,-6.33285665512085,-4.534756660461426,3.747040033340454,,110.31915958710579,41.6649777683614
1557947993777,,,,,,,,1003.85791015625,,
1557947993793,0.0,,,,,,,,,
1557947993806,,23.725529887383665,,,,,,,,
1557947993829,,,,5.71199211684252,,,,,,
1557947993830,,,,,-7.915472507476807,-2.0902018547058105,3.2442424297332764,,159.6310148661443,41.1060425839196
1557947993846,,23.35492014640866,0.0,,,,,,,
1557947993878,,,,,,,,1003.860107421875,,
1557947993886,,25.66549720241926,,,,,,,,
1557947993889,,,,1.5655724644174613,-11.19323444366455,-0.7494080066680908,1.8364087343215942,,117.29856789991578,41.63904856020836
1557947993905,0.0,,,,,,,,,
1557947993926,,31.3463925237614,,,,,,,,
1557947993958,,,,0.8824794782570472,-9.268238067626953,-1.4964218139648438,1.75021493434906,,129.54393594958975,40.38142569781236
1557947993971,,26.697131481451983,0.0,,,,,,,
1557947993977,,,,,,,,1003.85986328125,,
1557947994004,0.0,,,,,,,,,
1557947994006,,24.107447243728622,,,,,,,,
1557947994009,,,,0.49411861084161524,-9.596253395080566,,2.485257148742676,,136.02172833956487,39.80677729069355
1557947994010,,,,,,-2.6217308044433594,,,,
1557947994046,,18.758713217886644,0.0,,,,,,,
1557947994069,,,,0.7872473356820283,-9.117398262023926,-2.1213274002075195,2.7701759338378906,,145.47950494365986,39.28983005551981
1557947994076,,,,,,,,1003.8642578125,,
1557947994086,,23.00946280042689,,,,,,,,
1557947994105,0.0,,,,,,,,,
1557947994126,,18.70905303620542,0.0,,,,,,,
1557947994129,,,,2.1612553757820763,-8.174054145812988,-3.9792847633361816,2.722290515899658,,154.63568771476378,38.3388727507741
1557947994166,,19.12499807584137,,,,,,,,
1557947994177,,,,,,,,1003.85791015625,,
