timestamp,AmbientLightSensor,DecibelSource,PitchSensor,LinearAccelerometerSensor,AccX,AccY,AccZ,BarometerSensor,CompassSensor,MagneticRotationSensor
1557947776395,,21.71709874300687,,,,,,,,
1557947776396,,,0.0,,,,,,,
1557947776431,,,,0.4860980703860203,0.0766167938709259,3.0167863368988037,,,,
1557947776432,,,,,,,9.514847755432129,,273.0189274482891,42.4104923923281
1557947776436,,28.551454046945118,,,,,,,,
1557947776444,8.0,,,,,,,,,
1557947776451,,,,2.4257097955521285,-0.5602602958679199,2.3080809116363525,11.755888938903809,,,
1557947776452,,,,,,,,,263.96882434518466,42.40455020591778
1557947776458,,,,,,,,1004.361572265625,,
1557947776475,,28.87870759981078,0.0,,,,,,,
1557947776508,,,,2.6206472730065373,,,,,,
1557947776509,,,,,-1.5921927690505981,2.166818618774414,11.265063285827637,,257.1811667631336,41.49167936847223
1557947776515,,24.93808831337567,,,,,,,,
1557947776555,,22.444089678885575,,,,,,,,
1557947776559,8.0,,,,,,,1004.35546875,,
1557947776568,,,,2.6871797237734,-2.1476645469665527,1.8292258977890015,10.893950462341309,,,
1557947776569,,,,,,,,,259.5594318019429,41.65305191484901
1557947776595,,20.03611449126634,0.0,,,,,,,
1557947776629,,,,1.6256911935202987,-1.398256540298462,1.0917893648147583,10.381575584411621,,260.32165359255964,42.069584870318
1557947776635,,17.978961292409117,,,,,,,,
1557947776658,,,,,,,,1004.3564453125,,
1557947776675,8.0,18.818845308327013,0.0,,,,,,,
1557947776688,,,,,-1.398256540298462,1.783734679222107,8.964164733886719,,,41.917031247051426
1557947776689,7.0,,,1.3245345107723885,,,,,265.88252723740635,
1557947776714,,15.532347241121489,,,,,,,,
1557947776749,,,,1.1809879738973006,-1.30009126663208,2.1859729290008545,9.299363136291504,,266.13211601005696,41.232049780943285
1557947776755,,14.376103686802697,0.0,,,,,,,
1557947776758,,,,,,,,1004.355224609375,,
1557947776777,7.0,,,,,,,,,
1557947776795,,13.715599807174852,,,,,,,,
1557947776809,,,,,-0.9529213905334473,,,,,
1557947776810,,,,1.3648809540366575,,2.102173328399658,8.463761329650879,,272.20427712560337,41.822194282289544
1557947776835,,11.879425707792024,0.0,,,,,,,
1557947776860,,,,,,,,1004.3486328125,,
1557947776870,,,,2.0792543024566927,-0.7589851021766663,2.236252784729004,7.6712565422058105,,279.58144150472907,41.52021632331106
1557947776875,,14.358992337797286,,,,,,,,
1557947776894,7.0,,,,,,,,,
1557947776915,,11.305525566517256,,,,,,,,
1557947776932,,,,2.498466784488711,-0.7182824611663818,2.1596357822418213,7.218738555908203,,277.0002310551112,42.24758395494964
1557947776955,,43.93026355777784,,,,,,,,
1557947776956,,,0.0,,,,,,,
1557947776958,,,,,,,,1004.345703125,,
1557947776995,7.0,,,1.039153360395326,-0.25618740916252136,2.444554567337036,8.87318229675293,,272.87472166434264,42.08947489252531
1557947776996,,44.76143229704411,,,,,,,,
1557947777036,,43.52735598545309,,,,,,,,
1557947777038,,,158.9208984375,,,,,,,
1557947777039,,,158.9208984375,,,,,,,
1557947777059,6.0,,,1.5071960928599017,-0.112530916929245,2.6839821338653564,8.39193344116211,,275.8247486687628,42.373635084791594
1557947777062,,,,,,,,1004.337646484375,,
1557947777076,,43.7830366564641,158.9208984375,,,,,,,
1557947777104,6.0,,,,,,,,,
1557947777116,,43.958267054679155,158.9208984375,,,,,,,
1557947777118,,,158.4521484375,,,,,,,
1557947777129,,,,1.3124556761023964,0.43336373567581177,2.449343204498291,10.525232315063477,,266.23736922516684,42.046430534444504
1557947777155,,44.211367934969694,158.4521484375,,,,,,,
1557947777162,,,,,,,,1004.344482421875,,
1557947777170,,,,1.1235307530097605,0.8427847623825073,2.384697675704956,9.538790702819824,,266.45056674991963,41.80006493118943
1557947777195,,43.116501209567645,158.4521484375,,,,,,,
1557947777209,6.0,,,,,,,,,
1557947777230,,,,2.3206022447723313,,,,,,
1557947777231,7.0,,,,0.24661029875278473,1.4748733043670654,11.844477653503418,,252.6666097972411,42.65139111857158
1557947777235,,34.34367553734373,158.4521484375,,,,,,,
1557947777238,,,158.9990234375,,,,,,,
1557947777266,,,,,,,,1004.3466796875,,
1557947777275,,24.581271683120697,158.9990234375,,,,,,,
1557947777302,,,,1.365715324155774,0.7470137476921082,0.6967339515686035,,,,
1557947777303,,,,,,,9.964971542358398,,251.84530687030372,42.79602705016237
1557947777311,7.0,,,,,,,,,
1557947777315,,17.964586909565437,158.9990234375,,,,,,,
1557947777350,,,,0.9648018646415165,0.6823683381080627,1.0079896450042725,10.101445198059082,,260.00010877700294,41.61785880652707
1557947777355,,19.91394362592863,,,,,,,,
1557947777361,,,,,,,,1004.345458984375,,
1557947777395,,15.347827594469672,0.0,,,,,,,
1557947777410,6.0,,,1.3918656376359795,0.7230709791183472,1.0415095090866089,8.523618698120117,,261.53655300060814,42.27480069830515
1557947777425,6.0,,,,,,,,,
1557947777435,,26.453910756351693,,,,,,,,
1557947777465,,,,,,,,1004.338134765625,,
1557947777470,,,,0.8954885100070047,0.6273000240325928,1.3072741031646729,10.391152381896973,,267.39339923275907,41.444235440829104
1557947777475,,46.59126207799158,,,,,,,,
1557947777515,,45.19957857181157,,,,,,,,
1557947777517,,,162.7490234375,,,,,,,
1557947777528,6.0,,,,,,,,,
1557947777530,,,,2.111063076889393,0.8308133482933044,1.5467015504837036,7.628159523010254,,277.3064762469271,42.293701884534784
1557947777555,,45.51822428136974,162.7490234375,,,,,,,
1557947777565,,,,,,,,1004.338134765625,,
1557947777590,,,,1.1370514582696123,0.9984126091003418,1.92020845413208,8.717555046081543,,280.09190252253916,41.85773121157344
1557947777595,,45.934888823484584,162.7490234375,,,,,,,
1557947777597,,,158.0615234375,,,,,,,
1557947777628,6.0,,,,,,,,,
1557947777635,,45.779657861937714,158.0615234375,,,,,,,
1557947777650,,,,1.7593065482284913,0.8020820617675781,1.982459545135498,7.891529560089111,,280.8638231817773,42.46173048977069
1557947777659,,,,,,,,1004.33251953125,,
1557947777675,,45.70317079904377,158.0615234375,,,,,,,
1557947777677,,,158.0615234375,,,,,,,
1557947777710,,,,0.29320780855296036,0.3782954216003418,2.4397659301757812,9.608224868774414,,284.844669165925,41.59696432832868
1557947777715,,43.672098573231544,158.0615234375,,,,,,,
1557947777749,6.0,,,,,,,,,
1557947777756,,32.90673500247431,158.0615234375,,,,,,,
1557947777759,,,,,,,,1004.33544921875,,
1557947777771,,,,1.1076263830953146,0.1532335877418518,1.9680938720703125,10.609031677246094,,278.91396126808957,42.02137782417543
1557947777795,,22.062811449084595,158.0615234375,,,,,,,
1557947777798,,,162.9833984375,,,,,,,
1557947777830,,,,2.781441328347069,-1.2330515384674072,0.6895511150360107,,,,
1557947777831,,,,,,,11.322525978088379,,258.4062977945588,41.99644036908751
1557947777835,,17.58222503908725,162.9833984375,,,,,,,
1557947777849,6.0,,,,,,,,,
1557947777868,,,,,,,,1004.321533203125,,
1557947777875,,18.19178213851285,162.9833984375,,,,,,,
1557947777892,,,,2.1225426995573238,-0.9720755815505981,0.15562786161899567,9.78300666809082,,255.1961088846528,41.37225061711088
1557947777915,,12.298257366244265,,,,,,,,
1557947777955,,10.833262635171177,0.0,,,,,,,
1557947777958,4.0,,,2.121709632328612,-1.9321798086166382,0.35674694180488586,10.439038276672363,1004.322265625,259.3989769979609,41.97496278887721
1557947777996,,15.296648491346312,,,,,,,,
1557947778020,,,,1.946868458058738,,,,,,
1557947778021,,,,,-2.425400495529175,1.8842942714691162,9.54118537902832,,311.43202062346757,40.74856816277779
1557947778035,,16.149103623659297,,,,,,,,
1557947778062,4.0,,,,,,,1004.320068359375,,
1557947778069,,,,2.8088321080618717,-1.9178141355514526,1.8962656259536743,,,,
1557947778070,,,,,,,12.083905220031738,,293.67660919675006,40.64892660397478
1557947778075,,15.317539931463314,0.0,,,,,,,
1557947778115,,14.215610264951394,,,,,,,,
1557947778129,,,,,-1.6879637241363525,,,,,
1557947778130,,,,1.978115090199216,,2.1883671283721924,10.649734497070312,,298.67527631063473,40.90490691680452
1557947778155,,12.663058433770203,0.0,,,,,,,
1557947778165,4.0,,,,,,,1004.31787109375,,
1557947778190,,,,2.353461629794252,-1.3599480390548706,2.4732859134674072,8.13335132598877,,306.7981675735316,40.25606442463874
1557947778195,,9.153184593718915,,,,,,,,
1557947778235,,12.216418934648377,0.0,,,,,,,
1557947778252,,,,2.1928080870589524,-1.6783866882324219,1.6448668241500854,7.506051540374756,,299.8676360944222,40.17428994837782
1557947778258,,,,,,,,1004.309326171875,,
1557947778275,,7.894911761406256,,,,,,,,
1557947778276,4.0,,,,,,,,,
1557947778315,,13.059019203648827,,,,,,,,
1557947778317,6.0,,,2.6503816293832236,-1.8364087343215942,1.9058427810668945,6.955368518829346,,306.25782447810275,40.28324239200146
1557947778355,,25.369068456918665,0.0,,,,,,,
1557947778361,,,,,,,,1004.309326171875,,
1557947778369,,,,1.0360392708938935,-1.2210801839828491,1.3719195127487183,,,,
1557947778370,,,,,,,8.609811782836914,,286.0351506476907,40.63085560560847
1557947778381,6.0,,,,,,,,,
1557947778396,,19.9628129616262,,,,,,,,
1557947778429,,,,0.9497567994872699,-1.812466025352478,,,,,
1557947778430,,,,,,1.9585168361663818,10.412701606750488,,284.40089128498175,39.87815872575267
1557947778435,,16.756245701271414,,,,,,,,
1557947778436,,,0.0,,,,,,,
1557947778464,,,,,,,,1004.3046875,,
1557947778475,,21.085312755612456,,,,,,,,
1557947778484,6.0,,,,,,,,,
1557947778506,,,,1.7075373338050008,-1.8411973714828491,2.6241252422332764,11.011269569396973,,285.9154857334321,39.76244038129054
1557947778515,,27.772220880864534,0.0,,,,,,,
1557947778550,,,,2.507546384007769,0.028731297701597214,0.90024733543396,11.061549186706543,,268.73883721622485,40.76133470216181
1557947778551,,,,,,,,,271.1191444815959,
1557947778555,,26.849445419379094,,,,,,,,
1557947778559,,,,,,,,1004.306396484375,,
1557947778584,6.0,,,,,,,,,
1557947778595,,20.646489634536024,,,,,,,,
1557947778609,,,,4.092587371434147,-2.667222023010254,-0.22745610773563385,13.16372299194336,,260.9856914138574,39.943824558260715
1557947778635,,36.98665399004287,0.0,,,,,,,
1557947778668,,,,,,,,1004.306396484375,,
1557947778670,5.0,,,1.700836323734379,-0.6225114464759827,0.9098244309425354,10.556357383728027,,275.21086492654047,39.576491869632
1557947778675,,33.096359602975205,,,,,,,,
1557947778690,5.0,,,,,,,,,
1557947778715,,20.617413245249125,,,,,,,,
1557947778718,,,80.3662109375,,,,,,,
1557947778739,,,,3.5673655695672113,-3.818868398666382,1.6855695247650146,,,,
1557947778740,,,,,,,12.627405166625977,,291.10995388025356,39.096341247013065
1557947778755,,20.719842303222272,80.3662109375,,,,,,,
1557947778760,,,,,,,,1004.3125,,
1557947778789,,,,3.6166900885976463,-0.371112585067749,1.594586968421936,,,,
1557947778790,,,,,,,6.328068256378174,,295.50339110159416,39.14469978295358
1557947778795,,18.128527496606683,80.3662109375,,,,,,,
1557947778800,5.0,,,,,,,,,
1557947778835,,17.196149805766755,,,,,,,,
1557947778850,,,,1.090399596960507,-3.167625665664673,1.3407938480377197,10.020040512084961,,297.1257727653365,40.154570121216864
1557947778863,,,,,,,,1004.313232421875,,
1557947778875,,17.598861573394473,,,,,,,,
1557947778909,,,,2.8643788397653185,-1.7789461612701416,1.9656996726989746,6.483695983886719,,,39.13508874908713
1557947778910,5.0,,,,,,,,309.1848098393579,
1557947778915,,16.11382469023361,0.0,,,,,,,
1557947778955,,16.160501887289918,,,,,,,,
1557947778957,,,,,,,,1004.313232421875,,
1557947778969,,,,3.0025353844278357,-3.3711390495300293,1.9680938720703125,6.579467296600342,,330.9987811425995,38.71567111229173
1557947778995,,15.983698428740688,0.0,,,,,,,
1557947779010,5.0,,,,,,,,,
1557947779030,,,,3.5865427474651033,-4.84122371673584,1.6376839876174927,6.574678421020508,,356.38807387726587,38.0950856758313
1557947779035,,17.882862418114264,,,,,,,,
1557947779062,,,,,,,,1004.30322265625,,
1557947779075,,24.550832185766204,0.0,,,,,,,
1557947779089,,,,4.270442045321675,-5.557111740112305,-1.2665714025497437,9.143735885620117,,298.6432154026707,37.079708208059444
1557947779115,,21.856542386824167,,,,,,,,
1557947779125,5.0,,,,,,,,,
1557947779149,,,,4.234259009092276,-5.030371189117432,,,,,
1557947779150,,,,,,-2.207521438598633,8.401510238647461,,261.3464346850608,38.33347186315526
1557947779155,,18.695410214254927,,,,,,,,
1557947779157,,,,,,,,1004.306884765625,,
1557947779195,,20.038408987795595,0.0,,,,,,,
1557947779216,,,,7.898910795043002,-5.76062536239624,-3.811685562133789,14.219597816467285,,267.88871089099,38.57150792527771
1557947779233,5.0,,,,,,,,,
1557947779235,,21.7075881867423,,,,,,,,
1557947779257,,,,,,,,1004.306884765625,,
1557947779269,,,,1.680395074893714,-6.189200401306152,0.11013664305210114,9.488511085510254,,,
1557947779270,,,,,,,,,309.92362798678363,36.908047150321835
1557947779276,,17.130150289229103,0.0,,,,,,,
1557947779315,,17.448116866860815,,,,,,,,
1557947779329,,,,0.7713199488545441,-6.756643295288086,0.7039167881011963,,,,
1557947779330,,,,,,,7.9537811279296875,,324.11620442165275,37.89112804240819
1557947779333,5.0,,,,,,,,,
1557947779355,,17.330862112058632,0.0,,,,,,,
1557947779357,,,,,,,,1004.307373046875,,
1557947779389,7.0,,,1.0561404357605682,-6.325674057006836,0.6895511150360107,7.405491828918457,,325.5512374115562,37.24371590707152
1557947779395,,15.578248934017429,,,,,,,,
1557947779435,,12.402151951866847,0.0,,,,,,,
1557947779445,7.0,,,,,,,,,
1557947779450,,,,1.0176068849215227,-6.1868062019348145,-0.7254652380943298,6.445387840270996,,330.25296205127455,38.32797779496329
1557947779457,,,,,,,,1004.2998046875,,
1557947779476,,15.073907506640325,,,,,,,,
1557947779513,,,,2.6211566945916336,-5.746259689331055,1.0008069276809692,5.734288215637207,,345.7698558171485,37.94927502496797
1557947779515,,12.882761012189727,,,,,,,,
1557947779551,7.0,,,,,,,,,
1557947779555,,11.456001463681924,0.0,,,,,,,
1557947779557,,,,,,,,1004.2998046875,,
1557947779569,,,,5.825295751046311,-7.254652500152588,1.6017698049545288,,,,
1557947779570,5.0,,,,,,2.5929996967315674,,19.857069172066872,38.752938673380086
1557947779595,,13.356898227339848,,,,,,,,
1557947779629,,,,6.0585635274874825,-8.238699913024902,2.4397659301757812,,,,
1557947779630,,,,,,,3.0790374279022217,,23.062275458973318,39.300182049278696
1557947779635,,12.975322367177103,0.0,,,,,,,
1557947779657,,,,,,,,1004.286865234375,,
1557947779663,5.0,,,,,,,,,
1557947779677,,13.576194253962338,,,,,,,,
1557947779689,,,,3.7924215941600643,-9.756669998168945,-1.271359920501709,2.98087215423584,,30.593045669890728,38.7515463733079
1557947779715,,16.126997807380764,0.0,,,,,,,
1557947779753,2.0,,,4.071918544111954,-12.19164752960205,-1.1947431564331055,2.293715238571167,,31.756366904421895,38.01510159411812
1557947779755,,23.87238448308412,,,,,,,,
1557947779757,,,,,,,,1004.281982421875,,
1557947779774,2.0,,,,,,,,,
1557947779795,,21.958024165660373,,,,,,,,
1557947779813,,,,4.17099526948736,,,,,,
1557947779814,,,,,-11.66490650177002,-5.2817702293396,1.9010541439056396,,36.94249539026674,38.73068404996421
1557947779835,,21.643848941576678,0.0,,,,,,,
1557947779857,,,,,,,,1004.281982421875,,
1557947779873,2.0,,,0.8701198590683945,-8.911490440368652,-1.6640210151672363,1.453324794769287,,25.092042048213727,37.72936107987286
1557947779875,,20.492663804339713,,,,,,,,
1557947779915,,21.98262678374388,0.0,,,,,,,
1557947779935,0.0,,,8.674353882751333,-13.07513427734375,-7.249864101409912,8.360807418823242,,6.648017352677925,38.253234817749885
1557947779955,,23.038410841842985,,,,,,,,
1557947779957,,,,,,,,1004.2724609375,,
1557947779984,0.0,,,,,,,,,
1557947779989,,,,4.065025600901713,-8.509252548217773,-6.687209606170654,5.758230686187744,,,
1557947779990,,,,,,,,,2.6860111646952305,38.670638178138404
1557947779995,,22.777417126440433,0.0,,,,,,,
1557947780035,,19.811850629563374,,,,,,,,
1557947780049,,,,5.476414829499827,-4.388705730438232,-3.9768905639648438,-1.2138973474502563,,26.502896168455322,39.470012070545536
1557947780057,,,,,,,,1004.27294921875,,
1557947780075,,20.074787625398557,,,,,,,,
1557947780084,0.0,,,,,,,,,
1557947780110,,,,5.939639699778396,-1.7909175157546997,-3.5794408321380615,2.3392064571380615,,26.85091821232959,40.07618228824179
1557947780115,,19.822045491095636,0.0,,,,,,,
1557947780155,,20.051250412732134,,,,,,,,
1557947780157,,,,,,,,1004.27294921875,,
1557947780169,,,,3.1999713538795023,-7.489291667938232,-8.82290267944336,4.944177627563477,,29.604870976246218,39.745187028969625
1557947780189,0.0,,,,,,,,,
1557947780195,,20.11959105337983,0.0,,,,,,,
1557947780228,,,,2.2705915013138367,,,,,,
1557947780229,,,,,-6.94100284576416,-6.052726745605469,1.9585168361663818,,25.6335531059907,40.002004131769525
1557947780235,,26.268231837877384,,,,,,,,
1557947780257,,,,,,,,1004.27587890625,,
1557947780275,,22.56944800130318,0.0,,,,,,,
1557947780289,,,,0.5210902692915897,-5.174027919769287,-7.532388687133789,3.6656346321105957,,32.69505687752968,39.88452268018599
1557947780296,0.0,,,,,,,,,
1557947780315,,26.66467039908303,,,,,,,,
1557947780349,,,,3.888075640582324,-5.798933506011963,-4.3408203125,1.2929084300994873,,21.761597412685944,40.70728960677844
1557947780355,,34.05034312522406,,,,,,,,
1557947780357,,,,,,,,1004.266357421875,,
1557947780395,,31.029769087406322,0.0,,,,,,,
1557947780410,0.0,,,4.2150157083782025,-3.2753679752349854,-9.565128326416016,1.0989720821380615,,39.49892249848119,41.29538859723897
1557947780435,,27.816475221677422,,,,,,,,
1557947780457,,,,,,,,1004.266357421875,,
1557947780470,,,,,-3.225088119506836,,,,,
1557947780471,,,,3.486080829814758,,-5.518803596496582,2.1141445636749268,,34.15239726526238,41.80842067207297
1557947780480,,28.561131285563967,0.0,,,,,,,
1557947780515,,28.890280975408913,,,,,,,,
1557947780516,0.0,,,,,,,,,
1557947780539,,,,15.321636105814038,-8.401510238647461,-20.341758728027344,6.70157527923584,,,41.29277217599075
1557947780540,,,,,,,,,48.152881459914056,
1557947780555,,43.71366047923388,,,,,,,,
1557947780556,,,0.0,,,,,,,
1557947780560,,,,,,,,1004.2685546875,,
1557947780589,,,,2.901483380004676,-7.398309230804443,-7.343240737915039,2.3344178199768066,,34.87002816588267,39.62335576703976
1557947780595,,41.359636106642384,,,,,,,,
1557947780621,0.0,,,,,,,,,
1557947780635,,34.81843836361313,,,,,,,,
1557947780649,,,,5.233354611363657,-4.774183750152588,-7.070293426513672,6.387925148010254,,42.347582665429286,40.28020272050156
1557947780657,,,,,,,,1004.26806640625,,
1557947780675,,34.504772623383744,,,,,,,,
1557947780677,,,39.990234375,,,,,,,
1557947780715,,39.350674271436866,39.990234375,,,,,,,
1557947780719,,,,4.992417116809541,-8.099831581115723,-5.607391834259033,-2.075836181640625,,34.10660426197205,40.87924502744989
1557947780721,0.0,,,,,,,,,
1557947780755,,43.406534456855546,39.990234375,,,,,,,
1557947780757,,,,,,,,1004.25439453125,,
1557947780769,,,,5.997139566776684,-3.6345090866088867,-1.2761484384536743,2.446948766708374,,28.918884342050603,40.343251899014156
1557947780795,,36.216424543116595,,,,,,,,
1557947780826,0.0,,,,,,,,,
1557947780829,,,,3.9319684365248455,-7.8867411613464355,-7.3600006103515625,5.815693378448486,,,40.20644440548773
1557947780830,,,,,,,,,30.430453016698607,
1557947780835,,31.486051027974913,,,,,,,,
1557947780836,,,0.0,,,,,,,
1557947780857,,,,,,,,1004.263427734375,,
1557947780875,,32.24185132762423,,,,,,,,
1557947780889,,,,5.613085186533276,-5.449369430541992,-0.5530774593353271,1.7909175157546997,,23.980058223031676,40.06351318202739
1557947780915,,36.405285332957284,,,,,,,,
1557947780943,0.0,,,,,,,,,
1557947780949,,,,2.1308787316160815,-6.016812801361084,-6.490879058837891,3.191568374633789,,33.1102811526477,39.526019956403665
1557947780955,,31.1912996546491,,,,,,,,
1557947780957,,,,,,,,1004.260498046875,,
1557947780960,,,55.5963134765625,,,,,,,
1557947780995,,28.653430540670332,55.5963134765625,,,,,,,
1557947781027,,,,4.619673264744818,-8.786988258361816,-5.217124938964844,-1.0032011270523071,,27.58680108595945,38.53499578634073
1557947781035,,34.97634740415486,55.5963134765625,,,,,,,
1557947781047,0.0,,,,,,,,,
1557947781056,,,,,,,,1004.261962890625,,
1557947781069,,,,2.187501525878374,-7.592245578765869,-6.747066497802734,2.4301888942718506,,34.294799879268,39.08713313585351
1557947781079,,33.65473764561578,,,,,,,,
1557947781115,,31.117142780540306,,,,,,,,
1557947781117,,,827.3095703125,,,,,,,
1557947781129,,,,3.6152151180436616,-9.107821464538574,-7.92265510559082,3.622537851333618,,30.83984431026539,39.52469986021683
1557947781147,0.0,,,,,,,,,
1557947781155,,37.38852704880043,827.3095703125,,,,,,,
1557947781157,,,,,,,,1004.25537109375,,
1557947781189,,,,3.2475911530115886,-7.3600006103515625,-6.103006362915039,6.612987041473389,,23.526590011203496,39.50488379009455
1557947781195,,33.759571908703954,827.3095703125,,,,,,,
1557947781235,,36.04632091047066,827.3095703125,,,,,,,
1557947781236,,,0.0,,,,,,,
1557947781249,,,,6.012188293878918,,,,,,
1557947781250,,,,,-2.3152637481689453,-3.1364998817443848,3.3926873207092285,,22.632291145058957,39.16731697902919
1557947781258,,,,,,,,1004.257568359375,,
1557947781260,0.0,,,,,,,,,
1557947781275,,37.281890047292606,,,,,,,,
1557947781315,,41.25809627751761,,,,,,,,
1557947781318,,,98.83561197916666,0.8658266817216174,-9.581888198852539,-2.6552507877349854,3.4214186668395996,,22.617947747801907,38.73891165250792
1557947781355,,44.97580723834865,98.83561197916666,,,,,,,
1557947781357,,,,,,,,1004.28857421875,,
1557947781361,0.0,,,,,,,,,
1557947781370,,,,2.8689273887426014,-12.02165412902832,-0.3735068738460541,2.8108785152435303,,26.909439273138275,36.86832802218081
1557947781395,,40.33784560199045,98.83561197916666,,,,,,,
1557947781402,,,49.51497395833333,,,,,,,
1557947781430,,,,1.390408445491536,-8.449396133422852,-1.393467903137207,0.9194015264511108,,,
1557947781431,,,,,,,,,33.55475229779165,36.05820176577447
1557947781435,,42.8041582043149,49.51497395833333,,,,,,,
1557947781470,0.0,,,,,,,1004.277587890625,,
1557947781476,,35.71572972250753,49.51497395833333,,,,,,,
1557947781489,,,,2.906136787424446,,,,,,
1557947781490,,,,,-7.604216575622559,0.9098244309425354,2.3655436038970947,,23.586051930570363,36.89063242621731
1557947781515,,27.365938681126522,49.51497395833333,,,,,,,
1557947781518,,,64.560546875,,,,,,,
1557947781550,,,,5.003616550942646,-5.664854049682617,0.924190104007721,5.073468208312988,,9.585717146306763,37.112800526518384
1557947781555,,36.62633269397914,64.560546875,,,,,,,
1557947781557,,,,,,,,1004.24951171875,,
1557947781570,0.0,,,,,,,,,
1557947781595,,31.62491421275324,64.560546875,,,,,,,
1557947781610,,,,2.2756430293550003,-10.405518531799316,-0.9050358533859253,2.051893472671509,,34.639263394584646,37.762074768157284
1557947781635,,35.06158144915337,,,,,,,,
1557947781657,,,,,,,,1004.237060546875,,
1557947781669,,,,1.7357250835614335,-10.194822311401367,-0.4549122154712677,4.206740856170654,,28.673820569725137,38.75549310600094
1557947781671,0.0,,,,,,,,,
1557947781675,,23.432131540524317,0.0,,,,,,,
1557947781715,,26.972683966185382,,,,,,,,
1557947781729,,,,3.8416841739633503,-12.569942474365234,-1.252205729484558,3.7350687980651855,,38.428935798958264,38.440992673407656
1557947781755,,24.830930013420684,,,,,,,,
1557947781758,,,,,,,,1004.236328125,,
1557947781780,0.0,,,,,,,,,
1557947781789,,,,6.773643904096373,,,,,,
1557947781790,,,,,-13.47258472442627,-1.2162915468215942,8.80135440826416,,31.348686573242162,38.23374937518135
1557947781795,,31.097753464787736,0.0,,,,,,,
1557947781835,,33.25318869265785,,,,,,,,
1557947781850,,,,2.7064282294735813,-6.5220046043396,-2.1811842918395996,3.5147953033447266,,38.43289047848771,37.541064827012406
1557947781857,,,,,,,,1004.235595703125,,
1557947781876,,27.932893862821064,,,,,,,,
1557947781880,,,71.57470703125,,,,,,,
1557947781894,0.0,,,,,,,,,
1557947781915,,23.287354632151338,71.57470703125,,,,,,,
1557947781917,,,,3.0015164357373534,-7.26183557510376,-3.5770466327667236,5.114171028137207,,37.37490442133651,38.12054468436243
1557947781955,,21.127979662711734,71.57470703125,,,,,,,
1557947781956,,,0.0,,,,,,,
1557947781957,,,,,,,,1004.2353515625,,
1557947781973,,,,1.8108236518995462,-9.945817947387695,-0.3615354895591736,2.949746608734131,,,38.39479572983483
1557947781974,,,,,,,,,33.6292696616365,
1557947781993,0.0,,,,,,,,,
1557947781995,,21.181743375776566,,,,,,,,
1557947782034,,,,1.295166498843866,-7.898712635040283,-2.3679378032684326,3.2346651554107666,,37.04524875614038,38.18065453113691
1557947782035,,39.83797314234448,,,,,,,,
1557947782058,,,,,,,,1004.231201171875,,
1557947782075,,32.08156976998064,,,,,,,,
1557947782077,,,207.6904296875,,,,,,,
1557947782089,,,,,-6.016812801361084,,,,,
1557947782090,,,,3.146003937463546,,-1.8651400804519653,2.3775148391723633,,37.81912967967037,38.68157624659344
1557947782094,0.0,,,,,,,,,
1557947782115,,22.462646011126154,207.6904296875,,,,,,,
1557947782150,,,,1.9107826001696488,-6.950579643249512,-1.9585168361663818,3.2059340476989746,,33.29169097700321,38.41213781702595
1557947782155,,24.15496678200944,207.6904296875,,,,,,,
1557947782157,,,,,,,,1004.23876953125,,
1557947782195,0.0,31.788978630316933,,,,,,,,
1557947782217,,,,2.056882432885361,-6.356799602508545,-3.126922845840454,3.498035430908203,,33.17920800665689,38.670779331424555
1557947782235,,20.961984085289078,0.0,,,,,,,
1557947782257,,,,,,,,1004.2353515625,,
1557947782270,,,,1.3545726705456314,-8.566715240478516,-3.744645833969116,3.6177492141723633,,37.008249621406435,38.52401798588427
1557947782275,,21.287442494649692,,,,,,,,
1557947782304,0.0,,,,,,,,,
1557947782315,,18.776240015179106,0.0,,,,,,,
1557947782340,,,,2.097811616794827,,,,,,
1557947782341,,,,,-9.598648071289062,-4.0487189292907715,3.6488747596740723,,34.72466124977734,39.8986918286866
1557947782355,,19.31643489041943,,,,,,,,
1557947782357,,,,,,,,1004.233642578125,,
1557947782389,,,,2.7784244886554244,-10.096656799316406,-3.1173458099365234,6.306519985198975,,29.358963675558243,40.06077352358823
1557947782395,,22.176286550867744,,,,,,,,
1557947782404,0.0,,,,,,,,,
1557947782435,,27.259680877226113,0.0,,,,,,,
1557947782450,,,,5.5269408601509795,-9.878777503967285,-7.506051540374756,7.510839939117432,,37.30776366179526,40.9020931322566
1557947782457,,,,,,,,1004.23779296875,,
1557947782475,,25.960145542881314,,,,,,,,
1557947782504,0.0,,,,,,,,,
1557947782515,,24.46063707466044,0.0,,,,,,,
1557947782524,,,,3.421467656664044,-5.909070014953613,-0.5123748183250427,6.498061656951904,,22.201895312247018,39.501922270296625
1557947782555,,22.700632333594758,,,,,,,,
1557947782557,,,,,,,,1004.228271484375,,
1557947782569,,,,2.0605162125606635,-6.864386081695557,-0.7541965842247009,6.548341751098633,,26.510733810527938,39.79936132614436
1557947782570,,,,,,,,,29.349353599396068,
1557947782595,,19.45622641335904,0.0,,,,,,,
1557947782608,0.0,,,,,,,,,
1557947782631,,,,1.5667487552455877,-8.291373252868652,-0.16281068325042725,4.687990188598633,,34.76177991282174,39.74994228805098
1557947782635,,21.693674934263996,,,,,,,,
1557947782657,,,,,,,,1004.221435546875,,
1557947782675,,22.340329375592212,,,,,,,,
1557947782689,,,,2.0939456222017307,,,,,,
1557947782690,,,,,-7.716747760772705,-0.7110996246337891,2.937775135040283,,41.7789728321203,39.02980413972706
1557947782715,,21.346941422985,0.0,,,,,,,
1557947782728,0.0,,,,,,,,,
1557947782752,,,,1.4141602034562522,-7.63294792175293,-0.6464542150497437,3.557892322540283,,,38.28498427059054
1557947782753,,,,,,,,,41.66715239012342,
1557947782755,,20.898951032474187,,,,,,,,
1557947782757,,,,,,,,1004.22412109375,,
1557947782796,,15.837563804955124,0.0,,,,,,,
1557947782824,,,,1.988284787397854,-7.254652500152588,0.4549122154712677,4.0487189292907715,,36.191096034389886,38.96333524206349
1557947782825,,,,,,,,,38.123202871330136,
1557947782835,,16.262635326199796,,,,,,,,
1557947782849,0.0,,,,,,,,,
1557947782857,,,,,,,,1004.210205078125,,
1557947782871,,,,1.5424632342886102,-7.884346961975098,-1.0606637001037598,3.1101629734039307,,46.406907523140376,38.078449527847454
1557947782875,,24.941609067593802,0.0,,,,,,,
1557947782915,,26.556240243620778,,,,,,,,
1557947782944,,,,1.5187738487349176,-8.533195495605469,0.5889915823936462,3.6823947429656982,,42.59205562639153,38.431626510326744
1557947782956,,26.466948433286074,,,,,,,,
1557947782958,,,,,,,,1004.20458984375,,
1557947782969,0.0,,,,,,,,,
1557947782994,,,,,-9.974549293518066,-0.4716721475124359,3.32085919380188,,,
1557947782995,,,,1.5741047025123314,,,,,49.19641483678157,38.30260918297867
1557947782997,,25.357898233114092,0.0,,,,,,,
1557947783035,,26.008186084557433,,,,,,,,
1557947783050,,,,2.699938268309008,-11.260274887084961,0.22506183385849,3.3591675758361816,,,
1557947783051,,,,,,,,,48.77245816480968,38.131829151726805
1557947783057,,,,,,,,1004.205322265625,,
1557947783075,,25.066806339676823,0.0,,,,,,,
1557947783089,0.0,,,,,,,,,
1557947783110,,,,5.445287280250063,-13.482161521911621,-0.2777358889579773,,,,
1557947783111,,,,,,,6.895511627197266,,46.113130841654424,38.83826308296311
1557947783115,,27.13154687782252,,,,,,,,
1557947783155,,26.854401039409797,0.0,,,,,,,
1557947783157,,,,,,,,1004.202392578125,,
1557947783175,,,,2.4974717707752156,-10.817333221435547,-2.454131603240967,,,,
1557947783176,,,,,,,4.388705730438232,,52.1785744661521,38.849524946688526
1557947783196,,23.305023498242477,,,,,,,,
1557947783197,0.0,,,,,,,,,
1557947783235,,25.05588298463148,,,,,,,,
1557947783241,,,,3.8166060302670743,,,,,,
1557947783242,,,,,-5.928224563598633,-2.7414445877075195,5.5044379234313965,,50.04588204876143,39.0793491822385
1557947783257,,,,,,,,1004.204345703125,,
1557947783275,,26.58929747135504,0.0,,,,,,,
1557947783289,,,,1.1795753274095924,-9.3233060836792,-1.2785427570343018,,,,
1557947783290,,,,,,,2.849187135696411,,51.538650627718994,38.90878438205093
1557947783302,0.0,,,,,,,,,
1557947783315,,20.758902624927735,,,,,,,,
1557947783349,,,,0.7765514610933565,,,,,,
1557947783350,,,,,-8.243488311767578,-1.3120626211166382,3.4621214866638184,,49.92817739879462,37.85833460111715
1557947783355,,26.308220752267527,0.0,,,,,,,
1557947783357,,,,,,,,1004.20068359375,,
1557947783395,,22.10704863182517,,,,,,,,
1557947783409,,,,1.5680308300704784,-7.716747760772705,-1.8340145349502563,2.815667152404785,,54.246984558169174,38.510698643411594
1557947783415,0.0,,,,,,,,,
1557947783435,,24.165244671690765,0.0,,,,,,,
1557947783457,,,,,,,,1004.199951171875,,
1557947783473,,,,2.594227390708013,-7.731113433837891,-2.722290515899658,1.5467015504837036,,59.256125767146045,38.84966417451737
1557947783475,,13.307288853581042,,,,,,,,
1557947783514,0.0,,,,,,,,,
1557947783515,,29.244413366262766,,,,,,,,
1557947783534,,,,2.2744095549614523,-7.728719234466553,-0.011971374042332172,3.533949613571167,,43.0494699800127,39.50916806051149
1557947783555,,21.526211052321322,0.0,,,,,,,
1557947783557,,,,,,,,1004.190673828125,,
1557947783589,,,,2.339963371772685,-7.1133904457092285,-3.4836697578430176,2.6217308044433594,,63.13790668757184,39.819210451959705
1557947783595,,25.572131643463077,,,,,,,,
1557947783615,0.0,,,,,,,,,
1557947783635,,24.1892479745059,,,,,,,,
1557947783636,,,0.0,,,,,,,
1557947783652,,,,1.7434416905140981,-6.818894863128662,-3.076643228530884,3.557892322540283,,54.08768064106238,40.34842632744729
1557947783657,,,,,,,,1004.189208984375,,
1557947783675,,22.28905267118892,,,,,,,,
1557947783709,,,,1.2666803833988427,-7.889135360717773,-3.66084623336792,2.8372156620025635,,54.52911235202566,40.00294893199653
1557947783715,,19.844558715798705,0.0,,,,,,,
1557947783720,0.0,,,,,,,,,
1557947783755,,19.493374441942166,,,,,,,,
1557947783758,,,,,,,,1004.190673828125,,
1557947783769,,,,1.1535817882708728,-7.956175327301025,-3.44057297706604,2.8348214626312256,,51.390179390635865,40.16263816876693
1557947783795,,19.48240481550821,,,,,,,,
1557947783820,0.0,,,,,,,,,
1557947783835,,19.62203381624317,0.0,1.3069682943501435,-8.945011138916016,-2.0207679271698,2.7031362056732178,,52.419748445745256,39.541137435106975
1557947783857,,,,,,,,1004.1982421875,,
1557947783876,,16.18492806331224,,,,,,,,
1557947783900,,,,1.1652530496029907,-9.210775375366211,-3.186779737472534,3.7111258506774902,,49.71486717592052,39.65931863848748
1557947783915,,16.8474056195682,0.0,,,,,,,
1557947783926,0.0,,,,,,,,,
1557947783950,,,,,-11.839689254760742,-2.449343204498291,4.498842239379883,,53.606780681980126,
1557947783951,,,,3.7223453612068487,,,,,58.71309840737331,39.86298816285116
1557947783956,,18.991421513528685,,,,,,,,
1557947783957,,,,,,,,1004.18994140625,,
1557947783995,,28.746602668622533,0.0,,,,,,,
1557947784009,,,,3.854860700373894,-13.23315715789795,-4.0487189292907715,5.1309309005737305,,57.059793062163806,40.56629941095035
1557947784035,,28.085936948846232,,,,,,,,
1557947784044,0.0,,,,,,,,,
1557947784057,,,,,,,,1004.183349609375,,
1557947784069,,,,3.8038831796688855,-8.449396133422852,-6.972128391265869,,,,
1557947784070,,,,,,,5.8731560707092285,,79.18374225560262,38.995751671500024
1557947784075,,28.794976771640258,,,,,,,,
1557947784115,,28.903063010457856,0.0,,,,,,,
1557947784132,,,,4.163182951199269,-4.297723293304443,-2.0878076553344727,7.678439140319824,,37.32218560622778,38.720318947307995
1557947784151,0.0,,,,,,,,,
1557947784155,,22.88230462341998,,,,,,,,
1557947784157,,,,,,,,1004.17626953125,,
1557947784189,,,,1.0386321818789457,-6.703969478607178,-2.7127132415771484,6.316096782684326,,52.99979884591397,38.303266374649475
1557947784195,,23.56316426257317,0.0,,,,,,,
1557947784235,,23.362032484346326,,,,,,,,
1557947784251,0.0,,,1.9592227809738894,-7.934626579284668,-0.3064671754837036,6.4022908210754395,,48.375337306086806,38.700370777571834
1557947784257,,,,,,,,1004.181884765625,,
1557947784275,,27.519800296982915,0.0,,,,,,,
1557947784309,,,,3.178034322189604,-7.168458938598633,1.4605076313018799,5.265010356903076,,43.24636725831124,38.66784638325974
1557947784315,,23.56649040898127,,,,,,,,
1557947784352,0.0,,,,,,,,,
1557947784355,,20.379614810364327,,,,,,,,
1557947784357,,,,,,,,1004.17529296875,,
1557947784369,,,,2.9829046811646633,-8.01124382019043,-0.2609759569168091,3.938581943511963,,38.41640923202044,38.98859794050635
1557947784395,,20.8584088909673,0.0,,,,,,,
1557947784430,,,,1.5219023183137108,-7.508445739746094,-0.46448931097984314,3.694365978240967,,57.88874238587698,38.74295215223459
1557947784435,,21.85760193924642,,,,,,,,
1557947784459,,,,,,,,1004.17138671875,,
1557947784467,0.0,,,,,,,,,
1557947784475,,20.556482858040873,0.0,,,,,,,
1557947784490,,,,2.1931518565218826,-6.936213970184326,0.10774236917495728,3.474092721939087,,55.21517411830223,39.13991727326102
1557947784515,,19.454914737488895,,,,,,,,
1557947784551,,,,1.7764919377709572,-7.757450580596924,0.9050358533859253,3.6704232692718506,,52.47443094024038,39.65963490333973
1557947784555,,15.685608925080617,0.0,,,,,,,
1557947784558,,,,,,,,1004.16845703125,,
1557947784572,0.0,,,,,,,,,
1557947784595,,12.515499385578114,,,,,,,,
1557947784610,,,,0.6702742247779998,-9.249083518981934,0.5363175868988037,3.129317283630371,,61.27392757250789,38.40834203076046
1557947784636,,18.80466832049075,,,,,,,,
1557947784660,,,,,,,,1004.16845703125,,
1557947784671,,,,0.5948667314086623,-9.759063720703125,0.39266106486320496,,,65.97345289131351,39.46914602878532
1557947784672,,,,,,,2.418217658996582,,69.28360161972262,
1557947784676,,20.435471661799,0.0,,,,,,,
1557947784684,0.0,,,,,,,,,
1557947784715,,21.15197154008505,,,,,,,,
1557947784730,,,,0.7017846790057872,-10.379180908203125,0.7470137476921082,1.9585168361663818,,70.31070497654161,39.03529096438028
1557947784755,,19.931612007357483,0.0,,,,,,,
1557947784758,,,,,,,,1004.15869140625,,
1557947784786,0.0,,,,,,,,,
1557947784790,,,,1.1928881325053318,-10.173274040222168,2.0878076553344727,1.6831752061843872,,68.35573408135474,38.96139500433212
1557947784797,,18.256299474647047,,,,,,,,
1557947784835,,27.35253903516209,0.0,,,,,,,
1557947784851,,,,2.001183040721034,-13.036826133728027,1.5897984504699707,3.3663504123687744,,65.39026401922115,38.840905509081296
1557947784857,,,,,,,,1004.166259765625,,
1557947784875,,23.75507055212435,,,,,,,,
1557947784904,0.0,,,,,,,,,
1557947784909,,,,,,,,,,39.17673691102383
1557947784910,,,,,,,,,70.25281912332576,
1557947784915,,25.855310662941275,0.0,,,,,,,
1557947784919,,,,3.8955616711775662,-8.296162605285645,-1.1636176109313965,4.285751819610596,,92.09303201335854,
1557947784955,,24.62217131552392,,,,,,,,
1557947784957,,,,,,,,1004.166259765625,,
1557947784970,,,,2.880066595102294,-6.742278099060059,-2.8060901165008545,4.23068380355835,,96.32339163807598,39.07580125639588
1557947784995,,19.530618879925086,,,,,,,,
1557947785005,0.0,,,,,,,,,
1557947785029,,,,,-10.053560256958008,,,,,
1557947785030,,,,1.3068196127058194,,-1.0367209911346436,2.504411458969116,,90.77061859758487,39.228989018976634
1557947785039,,18.127694012476358,0.0,,,,,,,
1557947785058,,,,,,,,1004.1513671875,,
1557947785075,,19.836155493544013,,,,,,,,
1557947785089,,,,1.1691406392748442,-9.13415813446045,,,,,
1557947785090,,,,,,0.05027977004647255,3.229876756668091,,86.64321041422704,38.78103055403575
1557947785115,,20.38790868198213,0.0,,,,,,,
1557947785121,0.0,,,,,,,,,
1557947785152,,,,1.7151841366733551,-9.256266593933105,-1.6616266965866089,2.389486312866211,,106.50101553917693,38.30359772766857
1557947785155,,15.854543346903585,,,,,,,,
1557947785158,,,,,,,,1004.152099609375,,
1557947785195,,18.0155848034611,0.0,,,,,,,
1557947785224,0.0,,,1.5782029538683018,-8.861210823059082,-1.5059988498687744,1.903448462486267,,110.43398189724286,37.96544670303382
1557947785235,,16.52484249613148,,,,,,,,
1557947785258,,,,,,,,1004.152099609375,,
1557947785270,,,,0.444642047449098,-9.708784103393555,-0.6464542150497437,1.8651400804519653,,110.92008646047267,38.2740737702705
1557947785271,,,,,,,,,117.22545755503998,
1557947785275,,16.43782681131211,,,,,,,,
1557947785315,,20.086942963530376,0.0,,,,,,,
1557947785326,0.0,,,,,,,,,
1557947785345,,,,0.9753853989882401,-8.794171333312988,-0.8834874033927917,1.874717116355896,,120.4110441235556,37.82522951690567
1557947785355,,20.51237862939743,,,,,,,,
1557947785358,,,,,,,,1004.14404296875,,
1557947785390,,,,1.572015550521929,-9.42386531829834,,,,,
1557947785391,,,,,,-1.4389591217041016,0.7446194887161255,,125.21067269483692,37.483098857916914
1557947785395,,18.96100472568565,0.0,,,,,,,
1557947785431,0.0,,,,,,,,,
1557947785435,,19.591955773118507,,,,,,,,
1557947785454,,,,0.9363741790560117,-9.557945251464844,-1.1755889654159546,1.1564347743988037,,131.36832045803519,37.57676773134405
1557947785459,,,,,,,,1004.14990234375,,
1557947785475,,19.511898846498514,0.0,,,,,,,
1557947785515,,14.602021365895066,,,,,,,,
1557947785518,,,,0.7740215446839831,-9.634561538696289,-0.6320885419845581,,,,
1557947785519,,,,,,,0.8810931444168091,,130.573218136754,37.64664051815869
1557947785540,0.0,,,,,,,,,
1557947785555,,12.070490795849482,,,,,,,,
1557947785564,,,,,,,,1004.14990234375,,
1557947785570,,,,0.9240904228008908,-9.857229232788086,0.19872480630874634,0.7925049662590027,,131.7645670525443,36.671976551957194
1557947785595,,14.891961085910893,0.0,,,,,,,
1557947785635,,17.76638600549183,,3.57264469694584,-12.507691383361816,-2.0351336002349854,2.8683412075042725,,156.47445660160125,37.357648510334286
1557947785657,0.0,,,,,,,,,
1557947785658,,,,,,,,1004.156005859375,,
1557947785675,,23.844476970848238,0.0,,,,,,,
1557947785690,,,,,-7.69280481338501,-0.6416656374931335,4.0128045082092285,,,
1557947785691,,,,2.8277374339228776,,,,,185.5363141058242,37.230664717452264
1557947785715,,19.716402592481344,,,,,,,,
1557947785750,,,,3.216686587362586,,,,,,
1557947785751,,,,,-6.950579643249512,,,,,
1557947785755,,19.677967566387714,0.0,,,,,,,
1557947785758,,,,,,,,1004.1552734375,,
1557947785770,0.0,,,,,,,,,
1557947785796,,17.772681411619477,,,,,,,,
1557947785814,,,,1.912082940796594,-11.312948226928711,-0.5889915823936462,2.547508478164673,,165.75591870246154,37.818376500401214
1557947785835,,21.93969689026348,,,,,,,,
1557947785858,,,,,,,,1004.1552734375,,
1557947785875,,21.453800029709548,0.0,,,,,,,
1557947785880,,,,0.6615534336079691,-9.021627426147461,-0.5626545548439026,3.074248790740967,,178.7891217521398,37.38832860342587
1557947785881,0.0,,,,,,,,182.62639397221028,
1557947785915,,20.029835045134718,,,,,,,,
1557947785938,,,,1.0175719160304215,-8.554743766784668,-0.28731298446655273,3.3256475925445557,,186.42220330155328,37.04483758582637
1557947785955,,12.80112045857418,0.0,,,,,,,
1557947785959,,,,,,,,1004.15771484375,,
1557947785980,0.0,,,,,,,,,
1557947785990,,,,0.5950736300005827,-9.021627426147461,-0.46927785873413086,2.5235655307769775,,180.15299122845192,37.23680312307683
1557947785995,,14.248594226476907,,,,,,,,
1557947786035,,20.13983045518644,0.0,,,,,,,
1557947786051,,,,0.23716560652237437,-9.311334609985352,0.06703969836235046,2.6887705326080322,,185.33950903507946,37.45696628757837
1557947786058,,,,,,,,1004.15576171875,,
1557947786075,,13.295316247955293,,,,,,,,
1557947786096,0.0,,,,,,,,,
1557947786110,,,,0.7280009397327729,-9.639349937438965,-0.0766167938709259,2.08062481880188,,,
1557947786111,,,,,,,,,184.3934048916276,36.43605771350847
1557947786115,,18.01783926336587,,,,,,,,
1557947786155,,16.925761661588442,0.0,,,,,,,
1557947786158,,,,,,,,1004.15576171875,,
1557947786173,,,,2.784463205021465,-11.602655410766602,-0.56504887342453,0.8260248303413391,,175.77072455412775,36.10584335121927
1557947786195,,18.284640623358257,,,,,,,,
1557947786213,0.0,,,,,,,,,
1557947786235,,17.916683752237287,0.0,,,,,,,
1557947786237,,,,3.60689482584799,-9.766246795654297,3.287339210510254,2.5020172595977783,,216.24371080279934,36.0290372360406
1557947786258,,,,,,,,1004.15869140625,,
1557947786275,,17.352973826937447,,,,,,,,
1557947786290,,,,3.5591886423037353,-12.31375503540039,0.7446194887161255,4.192375183105469,,,
1557947786291,,,,,,,,,208.4703408102995,35.66554569710927
1557947786314,0.0,,,,,,,,,
1557947786315,,18.300799724112235,0.0,,,,,,,
1557947786350,,,,4.189789103660743,,,,,,
1557947786351,,,,,-8.54277229309082,-3.529160976409912,4.235472202301025,,206.8011381997968,35.08379073611005
1557947786355,,20.871985174975414,,,,,,,,
1557947786358,,,,,,,,1004.162109375,,
1557947786400,,17.42492671790013,,,,,,,,
1557947786410,,,,5.488111304641941,,,,,,
1557947786411,,,,,-5.731894016265869,-4.292934894561768,3.627326250076294,,209.85876800440133,34.763722003877355
1557947786416,0.0,,,,,,,,,
1557947786435,,18.937328335349783,0.0,,,,,,,
1557947786458,,,,,,,,1004.162109375,,
1557947786472,,,,1.854661625438195,-11.004087448120117,-1.2809370756149292,3.478881359100342,,208.3404989141776,34.7248680590601
1557947786476,,22.55983163989899,,,,,,,,
1557947786515,,19.810462072111804,0.0,,,,,,,
1557947786530,,,,0.6623341901682761,,,,,,
1557947786531,0.0,,,,-9.18204402923584,-1.6544438600540161,2.818061351776123,,205.906820550632,34.230302312148694
1557947786555,,25.687450174154275,,,,,,,,
1557947786558,,,,,,,,1004.152587890625,,
1557947786590,,,,,-9.06233024597168,-2.329629421234131,2.2434353828430176,,,
1557947786591,,,,1.1872628627714092,,,,,200.86952871699089,33.02257336920482
1557947786596,,24.405181996028176,0.0,,,,,,,
1557947786632,0.0,,,,,,,,,
1557947786635,,30.374565376587764,,,,,,,,
1557947786654,,,,1.05126851068953,-8.375173568725586,-2.6217308044433594,2.5187771320343018,,204.91846485697442,33.905946328230534
1557947786658,,,,,,,,1004.150634765625,,
1557947786675,,28.84165769054862,,,,,,,,
1557947786710,,,,0.912856520936764,-7.94180965423584,-2.638490915298462,3.567469358444214,,218.15190173236078,33.739742690141505
1557947786715,,28.291447175943844,0.0,,,,,,,
1557947786733,0.0,,,,,,,,,
1557947786755,,20.570473640326167,,,,,,,,
1557947786758,,,,,,,,1004.150634765625,,
1557947786770,,,,,-8.772623062133789,-2.9305922985076904,2.449343204498291,,,
1557947786771,,,,1.5224909262551205,,,,,201.3308806746686,33.41547617354822
1557947786796,,16.07764940582941,0.0,,,,,,,
1557947786835,,14.08101456466184,,,,,,,,
1557947786837,0.0,,,1.1906141305662605,-9.354432106018066,-2.9976320266723633,3.129317283630371,,202.5840837835825,33.40297424686666
1557947786858,,,,,,,,1004.148681640625,,
1557947786875,,17.755543119035877,0.0,,,,,,,
1557947786890,,,,4.108497671021972,-12.742330551147461,-2.631308078765869,3.7997140884399414,,,33.631592563826224
1557947786891,,,,,,,,,203.47394814940844,
1557947786915,,25.093435110746686,,,,,,,,
1557947786951,0.0,,,,,,,,,
1557947786952,,,,6.958546922645431,,,,,,
1557947786953,,,,,-12.900352478027344,-7.585062503814697,5.6576714515686035,,207.35662382461555,32.90238062676721
1557947786955,,29.123880657740248,,,,,,,,
1557947786958,,,,,,,,1004.150146484375,,
1557947786995,,26.47936564175434,0.0,,,,,,,
1557947787010,,,,4.760606668744246,-4.913052082061768,-1.9417568445205688,7.190007209777832,,250.5477621732981,32.39027601128586
1557947787035,,26.932826670368065,,,,,,,,
1557947787054,0.0,,,,,,,,,
1557947787058,,,,,,,,1004.150146484375,,
1557947787073,,,,1.890248726216606,-7.556331157684326,-1.8962656259536743,6.179623126983643,,239.36634635101535,33.86408816322191
1557947787075,,25.391828192136895,0.0,,,,,,,
1557947787115,,19.81858140926631,,,,,,,,
1557947787130,,,,1.6768176735183193,-8.810931205749512,-0.009577099233865738,3.411841630935669,,228.61868852216344,33.93210904647077
1557947787154,0.0,,,,,,,,,
1557947787155,,23.14044064968006,0.0,,,,,,,
1557947787158,,,,,,,,1004.16455078125,,
1557947787194,,,,1.7955131345612139,-7.38154935836792,-0.16999350488185883,3.5866236686706543,,228.01321957299854,34.64131081644568
1557947787200,,20.285777072917682,,,,,,,,
1557947787235,,21.676287397816765,,,,,,,,
1557947787259,,,,2.0597054015307554,,,,,,
1557947787260,0.0,,,,-7.055927753448486,-0.5842030644416809,3.158048391342163,1004.15869140625,224.43879033503407,34.623796266954365
1557947787275,,18.693548016311635,0.0,,,,,,,
1557947787310,,,,1.3123907770396097,-7.807730197906494,-1.0870007276535034,3.3040993213653564,,,34.79136000413315
1557947787311,,,,,,,,,216.6126776217634,
1557947787320,,19.516882240524044,,,,,,,,
1557947787355,,15.30166289426804,0.0,,,,,,,
1557947787358,,,,,,,,1004.159912109375,,
1557947787359,0.0,,,,,,,,,
1557947787378,,,,1.5411222974555658,-8.274613380432129,0.37590113282203674,3.3711390495300293,,228.64322256166213,34.60778000772134
1557947787395,,16.740473505466703,,,,,,,,
1557947787435,,18.07159815697004,0.0,,,,,,,
1557947787437,,,,1.7332661151079052,-10.218765258789062,-0.05746259540319443,2.8755240440368652,,210.58390186782492,34.648741209672494
1557947787458,,,,,,,,1004.154052734375,,
1557947787460,0.0,,,,,,,,,
1557947787475,,18.408390906975193,,,,,,,,
1557947787490,,,,2.7601815657395417,-11.626598358154297,0.23942747712135315,2.825244188308716,,207.80939706469576,35.2553467805152
1557947787515,,19.765376422017727,,,,,,,,
1557947787555,,27.636117547338422,0.0,,,,,,,
1557947787563,,,,6.0881324893806275,-14.394380569458008,-1.0199611186981201,6.486090660095215,1004.154541015625,222.32010663563113,34.68404679489721
1557947787564,0.0,,,,,,,,,
1557947787595,,23.118427236846344,,,,,,,,
1557947787610,,,,2.201649056459739,-9.797372817993164,-2.4038519859313965,4.5706706047058105,,219.1916750900902,34.63039675076907
1557947787635,,25.156748876227617,0.0,,,,,,,
1557947787658,,,,,,,,1004.1552734375,,
1557947787665,0.0,,,,,,,,,
1557947787671,,,,3.871063817406034,-6.184412002563477,-3.3232533931732178,4.302511692047119,,222.52879623553167,35.54988710812862
1557947787675,,19.591279590550347,,,,,,,,
1557947787715,,19.215714692544637,0.0,,,,,,,
1557947787743,,,,1.526581635057514,-10.37199878692627,-1.9465453624725342,2.8443984985351562,,214.08732445917792,36.43675103522906
1557947787755,,24.74165038509929,,,,,,,,
1557947787758,,,,,,,,1004.14599609375,,
1557947787765,0.0,,,,,,,,,
1557947787790,,,,1.821278851764273,-8.734314918518066,-1.9154198169708252,1.5706442594528198,,208.1653865242368,36.93963478907481
1557947787795,,28.742043035640936,0.0,,,,,,,
1557947787835,,25.361581853197936,,,,,,,,
1557947787851,,,,1.9250156203788042,-7.324086666107178,-1.6496553421020508,2.5187771320343018,,221.9553745339524,37.69427954091906
1557947787858,,,,,,,,1004.146240234375,,
1557947787871,0.0,,,,,,,,,
1557947787875,,20.452608701727648,,,,,,,,
1557947787914,,,,3.3486983147392073,-5.858790397644043,-1.7430320978164673,2.226675510406494,,221.986492875811,38.11775826633939
1557947787915,,23.41211262013697,0.0,,,,,,,
1557947787955,,18.299634487835284,,,,,,,,
1557947787958,,,,,,,,1004.1416015625,,
1557947787978,,,,3.1978703266642423,-5.786962032318115,,,,,
1557947787979,0.0,,,,,-3.0263633728027344,2.547508478164673,,216.2774792580559,38.78158616157319
1557947787996,,19.56398227733728,0.0,,,,,,,
1557947788036,,21.182924764637306,,,,,,,,
1557947788051,,,,1.2989310087599681,-7.7023820877075195,-3.598595142364502,3.2418479919433594,,,38.893005097967695
1557947788052,,,,,,,,,217.09695169429563,
1557947788058,,,,,,,,1004.1279296875,,
1557947788076,,15.406571430598511,0.0,,,,,,,
1557947788095,0.0,,,2.3308472559047893,-10.06313705444336,-2.9353809356689453,3.4190244674682617,,214.39371308496635,38.59455381661102
1557947788115,,16.895876940752753,,,,,,,,
1557947788151,,,,3.58315579765601,-11.016057968139648,-2.5618741512298584,2.6169424057006836,,199.60873043771994,38.96749400588082
1557947788155,,21.052977261012224,,,,,,,,
1557947788158,,,,,,,,1004.130126953125,,
1557947788196,0.0,24.954216141541213,,,,,,,,
1557947788197,,,0.0,,,,,,,
1557947788210,,,,5.771527997931588,-12.620222091674805,-5.444581031799316,7.2115559577941895,,218.30745246051868,38.818702182035864
1557947788235,,26.137052230228775,,,,,,,,
1557947788258,,,,,,,,1004.123779296875,,
1557947788272,,,,2.178630394774132,-6.955368518829346,-3.720703125,6.2729997634887695,,230.00233458384628,39.385965846646684
1557947788275,,23.48272844998471,0.0,,,,,,,
1557947788299,0.0,,,,,,,,,
1557947788315,,20.832652942175155,,,,,,,,
1557947788330,,,,3.542966596609048,-6.292154312133789,-0.9289786219596863,7.44140625,,250.12539693540282,39.443873535078865
1557947788355,,25.41174383891692,0.0,,,,,,,
1557947788358,,,,,,,,1004.12841796875,,
1557947788390,,,,0.7034563767193696,-8.293767929077148,-1.4605076313018799,4.3551859855651855,,213.24289451171092,40.073441020691035
1557947788395,,19.642318283696007,,,,,,,,
1557947788406,0.0,,,,,,,,,
1557947788435,,18.00780181588687,,,,,,,,
1557947788453,,,,1.7721021557072976,-7.494080066680908,-0.282524436712265,3.620143413543701,,214.48445897827912,40.51443967333595
1557947788458,,,,,,,,1004.1220703125,,
1557947788475,,17.927330567041718,0.0,,,,,,,
1557947788510,,,,2.2216364393111987,-6.969734191894531,0.14605076611042023,3.6440863609313965,,218.3948652215165,41.282352066717586
1557947788515,,18.610607196607486,,,,,,,,
1557947788525,0.0,,,,,,,,,
1557947788555,,17.020024087270265,0.0,,,,,,,
1557947788558,,,,,,,,1004.1162109375,,
1557947788570,,,,1.7918363165563422,-7.230710029602051,-0.44054657220840454,3.476486921310425,,212.16753586840576,41.8423321083203
1557947788595,,18.552622364293722,,,,,,,,
1557947788635,,16.331534360601438,0.0,,,,,,,
1557947788647,0.0,,,1.513962846907346,-7.597033977508545,-0.4189980924129486,3.3567733764648438,,207.9960251535772,41.76693712556312
1557947788658,,,,,,,,1004.102294921875,,
1557947788676,,14.19766611742255,,,,,,,,
1557947788697,,,,1.2409306531614934,-8.104619979858398,-0.17238777875900269,3.3352248668670654,,207.1328668274059,41.96175343393622
1557947788715,,17.034424836948542,,,,,,,,
1557947788747,0.0,,,,,,,,,
1557947788750,,,,,-8.87078857421875,0.06464541703462601,3.6656346321105957,,207.49479855152492,42.27058324066281
1557947788751,,,,1.0085207202808373,,,,,,
1557947788756,,12.00845536880153,0.0,,,,,,,
1557947788758,,,,,,,,1004.10595703125,,
1557947788803,,19.75512564590671,,,,,,,,
1557947788810,,,,2.5216334835910685,-10.649734497070312,-0.06464541703462601,2.796513080596924,,192.5872140086767,42.56284045397685
1557947788835,,21.310043698658095,0.0,,,,,,,
1557947788849,0.0,,,,,,,,,
1557947788857,,,,,,,,1004.10205078125,,
1557947788872,,,,3.6665739712413377,,,,,,
1557947788873,,,,,-12.507691383361816,-0.12210801243782043,3.900273561477661,,197.36781367293042,42.42496480274258
1557947788875,,21.47562409554674,,,,,,,,
1557947788915,,24.4321685047959,0.0,,,,,,,
1557947788936,,,,6.781191214732961,,,,,,
1557947788937,,,,,-13.984959602355957,1.5874042510986328,7.728719234466553,,220.6002513422436,42.13192080927236
1557947788955,,28.904938900328464,,,,,,,,
1557947788962,0.0,,,,,,,1004.09326171875,,
1557947788990,,,,2.5706688538234688,,,,,,
1557947788995,,26.97415682104879,,,,,,,,
1557947789035,,24.624905247892347,0.0,,,,,,,
1557947789059,,,,3.323339899707711,-6.232297420501709,-1.6520496606826782,5.528380393981934,1004.093017578125,222.034741332108,42.258191715628065
1557947789075,,22.633448259146732,,,,,,,,
1557947789080,0.0,,,,,,,,,
1557947789110,,,,0.6314542581554055,-9.019232749938965,-1.922602653503418,3.785348415374756,,,42.55746956181988
1557947789111,,,,,,,,,206.15578094587897,
1557947789115,,28.788561192331233,0.0,,,,,,,
1557947789155,,20.631741624334655,,,,,,,,
1557947789167,,,,,,,,1004.10009765625,,
1557947789170,,,,1.654905817400293,-8.578686714172363,-1.398256540298462,1.9776710271835327,,195.07067079089336,41.68074302104011
1557947789189,0.0,,,,,,,,,
1557947789196,,24.765570934565908,0.0,,,,,,,
1557947789233,,,,1.6791457611120444,-7.714353561401367,-1.4988160133361816,2.5331428050994873,,205.14488562796032,42.0415513020506
1557947789235,,20.18276754805762,,,,,,,,
1557947789258,,,,,,,,1004.10009765625,,
1557947789276,,17.04547367340019,,,,,,,,
1557947789291,,,,2.561861470380553,-6.797346115112305,-1.92020845413208,2.6193366050720215,,208.1291455405007,40.76066962098039
1557947789315,,19.19146310750203,0.0,,,,,,,
1557947789316,0.0,,,,,,,,,
1557947789357,,20.720030033629865,,,,,,,,
1557947789370,,,,3.0773142410106975,-6.354405403137207,-1.1061549186706543,2.011190891265869,1004.1005859375,208.25465709668885,41.09005563094405
1557947789396,,17.377676273380413,0.0,,,,,,,
1557947789410,,,,2.097823550125448,-7.556331157684326,-1.5395187139511108,1.953728199005127,,205.7221185750965,40.44636330037031
1557947789421,0.0,,,,,,,,,
1557947789437,,20.909686674463668,,,,,,,,
1557947789458,,,,,,,,1004.1015625,,
1557947789471,,,,1.8650721614264367,-7.939415454864502,-2.9569294452667236,2.633702278137207,,205.85073103716786,39.94977292085357
1557947789476,,23.367035949439522,0.0,,,,,,,
1557947789515,,20.11391091459433,,,,,,,,
1557947789543,0.0,,,1.7749017392751723,-9.581888198852539,-1.8052831888198853,1.5107873678207397,,196.14327003777385,39.06852407102262
1557947789555,,22.178105941412532,,,,,,,,
1557947789566,,,,,,,,1004.09912109375,,
1557947789590,,,,1.1138302168980672,-12.158127784729004,-1.412622094154358,0.28013014793395996,,200.91277747481536,38.468330186619774
1557947789595,,22.012128233106246,0.0,,,,,,,
1557947789635,,23.00076160067355,,,,,,,,
1557947789654,,,,2.8008571811316405,-10.896344184875488,,,,,
1557947789655,0.0,,,,,-3.2059340476989746,0.30407288670539856,,189.8882647581462,38.33197141124285
1557947789658,,,,,,,,1004.094482421875,,
1557947789675,,23.471451886650666,0.0,,,,,,,
1557947789710,,,,3.4176023799180735,-10.956201553344727,-4.213923454284668,3.60098934173584,,208.14786025882654,36.93442207923304
1557947789715,,26.867907491902866,,,,,,,,
1557947789755,,19.46751276747695,0.0,,,,,,,
1557947789757,,,,,,,,1004.093505859375,,
1557947789764,0.0,,,,,,,,,
1557947789770,,,,4.6417224755119575,-6.785374641418457,-0.05027977004647255,6.787769317626953,,235.47633505263968,35.70710697480987
1557947789795,,20.666216857125473,,,,,,,,
1557947789830,,,,2.810230695954274,,,,,,
1557947789831,,,,,-7.989695072174072,-0.4070267081260681,6.275394439697266,,227.33690790176217,35.76956183079848
1557947789835,,22.645742320953843,,,,,,,,
1557947789858,,,,,,,,1004.093994140625,,
1557947789875,0.0,18.25714541807581,0.0,,,,,,,
1557947789898,,,,0.8250720772902201,-9.148524284362793,-0.41660380363464355,3.7685885429382324,,208.6277083687766,35.46126765197642
1557947789915,,20.003666812012373,,,,,,,,
1557947789955,,18.00070715532818,0.0,,,,,,,
1557947789962,,,,1.5669189527301814,-7.771816253662109,-0.09098244458436966,4.472505569458008,1004.09423828125,212.80898625411834,34.83355245577932
1557947789983,0.0,,,,,,,,,
1557947789995,,20.741046169638192,,,,,,,,
1557947790010,,,,1.8323139550040977,-8.367990493774414,0.8020820617675781,2.9329867362976074,,202.44584075478144,33.912315791731096
1557947790035,,20.629953160039708,0.0,,,,,,,
1557947790057,,,,,,,,1004.09033203125,,
1557947790073,,,,1.0447907837965111,-9.095849990844727,-0.4022381603717804,2.566662549972534,,195.13121358769638,34.45954001357699
1557947790075,,18.500360395869144,,,,,,,,
1557947790097,0.0,,,,,,,,,
1557947790115,,19.40381506422584,,,,,,,,
1557947790140,,,,0.51587283796149,-8.607418060302734,-0.5171633362770081,3.5171897411346436,,203.8087640225225,33.69447394962186
1557947790155,,18.900412568962594,0.0,,,,,,,
1557947790159,,,,,,,,1004.08447265625,,
1557947790189,,,,2.313201282462738,,,,,,
1557947790190,,,,,-10.90352725982666,0.0885881707072258,2.82045578956604,,196.36171314780927,32.22279122141613
1557947790195,,16.86507578456065,,,,,,,,
1557947790204,0.0,,,,,,,,,
1557947790235,,17.74545929314002,0.0,,,,,,,
1557947790262,,,,4.694924946307965,-13.470190048217773,,,,,
1557947790263,,,,,,0.0023942748084664345,1.8172545433044434,1004.086669921875,184.2898182426752,32.770656628652304
1557947790275,,23.554441351891636,,,,,,,,
1557947790304,0.0,,,,,,,,,
1557947790309,,,,7.149957147216425,-14.499728202819824,2.044710636138916,6.869174480438232,,210.78349365575104,
1557947790310,,,,,,,,,213.23405624692492,32.240216674961054
1557947790315,,27.02334293359343,0.0,,,,,,,
1557947790355,,31.615486235677047,,,,,,,,
1557947790360,,,,,,,,1004.078369140625,,
1557947790376,,,,2.5459870270715443,-8.786988258361816,-2.7701759338378906,4.458139896392822,,203.67498793743857,31.65771862176411
1557947790395,,24.533556150089552,0.0,,,,,,,
1557947790414,0.0,,,,,,,,,
1557947790429,,,,5.4603791613153705,-6.529187202453613,-4.7861552238464355,6.428627967834473,,216.14386709751204,31.58639466389466
1557947790435,,28.126390425690317,,,,,,,,
1557947790457,,,,,,,,1004.074462890625,,
1557947790475,,24.87699378063661,,,,,,,,
1557947790489,,,,0.48714101791084574,-8.583475112915039,-1.4198049306869507,3.6129605770111084,,204.19057159712622,31.38424382457007
1557947790514,0.0,,,,,,,,,
1557947790515,,26.184009369997202,0.0,,,,,,,
1557947790549,,,,1.7956613837438755,-8.312922477722168,-2.794118642807007,3.0455174446105957,,,
1557947790550,,,,,,,,,198.20731222381664,30.65694558370923
1557947790555,,24.791329555426444,,,,,,,,
1557947790557,,,,,,,,1004.081298828125,,
1557947790595,,26.241510820009996,0.0,,,,,,,
1557947790612,,,,2.65856195700415,-7.601822376251221,-1.7933118343353271,1.3767080307006836,,194.77321605253928,30.9507533485662
1557947790635,,38.61278485250371,,,,,,,,
1557947790636,0.0,,,,,,,,,
1557947790657,,,,,,,,1004.082763671875,,
1557947790675,,25.338475393097287,,3.022948232880735,-6.035966873168945,-0.9648927450180054,3.2777621746063232,,218.88296419998392,31.61709599266752
1557947790676,,,0.0,,,,,,,
1557947790718,,26.570238566950838,,,,,,,,
1557947790749,0.0,,,1.8645432395105228,-6.660872459411621,-3.469304084777832,3.972101926803589,,216.2318945755352,30.46115581492725
1557947790755,,26.979026535039736,,,,,,,,
1557947790757,,,,,,,,1004.078857421875,,
1557947790794,,,,1.874600049913968,-8.114197731018066,-4.333637237548828,3.1532599925994873,,203.71652914797062,30.67220748442261
1557947790795,,23.45307035049113,0.0,,,,,,,
1557947790835,,18.354496972325222,,,,,,,,
1557947790861,,,,1.8611995816751514,-9.129369735717773,,,,,
1557947790862,0.0,,,,,-3.2322709560394287,3.3663504123687744,1004.0673828125,203.38256021831376,31.01547303793014
1557947790875,,20.827283949825667,0.0,,,,,,,
1557947790910,,,,3.610243655617954,-11.339285850524902,-3.909850835800171,5.9354071617126465,,215.34954341779627,31.52290492808577
1557947790915,,24.745994379115466,,,,,,,,
1557947790956,,24.64358908992605,0.0,,,,,,,
1557947790957,,,,,,,,1004.06640625,,
1557947790971,,,,2.843510879691654,-9.13415813446045,-5.063891410827637,6.399896621704102,,220.69672093408087,30.772630297770583
1557947790972,0.0,,,,,,,,,
1557947790995,,28.346934912065002,,,,,,,,
1557947791031,,,,4.680201023055627,,,,,,
1557947791032,,,,,-4.920234680175781,0.06464541703462601,7.209161281585693,,253.52069763219453,30.671387309149384
1557947791035,,26.602204747622295,,,,,,,,
1557947791058,,,,,,,,1004.067138671875,,
1557947791075,,20.17664947572164,0.0,,,,,,,
1557947791084,0.0,,,,,,,,,
1557947791090,,,,0.6618694669728182,-8.095043182373047,-1.2186858654022217,5.4373979568481445,,229.43316125993078,31.616640972099532
1557947791115,,23.39470595930525,,,,,,,,
1557947791154,,,,2.0886277127952337,-7.666468143463135,0.31604427099227905,4.077449798583984,,226.50779123841437,32.64512808650897
1557947791156,,16.498071266702794,0.0,,,,,,,
1557947791158,,,,,,,,1004.066650390625,,
1557947791195,,18.222733684515752,,,,,,,,
1557947791197,0.0,,,,,,,,,
1557947791209,,,,2.2971681161290234,-7.3025383949279785,0.2729473412036896,3.3064935207366943,,221.3247568282635,32.35930773696577
1557947791235,,17.745252412357843,0.0,,,,,,,
1557947791259,,,,,,,,1004.066650390625,,
1557947791275,,18.128489614434393,,,,,,,,
1557947791277,,,,,-7.355212211608887,0.04070267081260681,3.5842294692993164,,,
1557947791278,,,,1.7741602294623529,,,,,226.68316317554354,33.02349979057639
1557947791298,0.0,,,,,,,,,
1557947791315,,19.929210323486586,,,,,,,,
1557947791329,,,,1.4919585207064388,-7.836461544036865,0.031125571578741074,3.3256475925445557,,225.4806947117845,32.25595756037792
1557947791355,,20.03887262176772,0.0,,,,,,,
1557947791358,,,,,,,,1004.065673828125,,
1557947791389,,,,1.4436424710743136,-7.970541000366211,-0.10774236917495728,3.155654191970825,,228.32131574607945,32.78680106534041
1557947791395,,20.69047753465737,,,,,,,,
1557947791401,0.0,,,,,,,,,
1557947791435,,15.927971629088846,0.0,,,,,,,
1557947791449,,,,1.1601453581533125,,,,,,
1557947791450,,,,,-9.035993576049805,0.2657645046710968,3.4238128662109375,,231.54114888309346,32.81040032079486
1557947791457,,,,,,,,1004.064453125,,
1557947791475,,18.288220505570774,,,,,,,,
1557947791510,,,,3.2642742082846774,-11.490124702453613,0.8020820617675781,2.509200096130371,,226.4525896495423,34.0412626257001
1557947791515,,25.03264008021915,0.0,,,,,,,
1557947791521,0.0,,,,,,,,,
1557947791555,,24.085178116499733,,,,,,,,
1557947791557,,,,,,,,1004.064453125,,
1557947791577,,,,4.614540025265291,-13.441458702087402,0.38787251710891724,4.948966026306152,,236.17282310268422,34.22509536301875
1557947791595,,23.921992870752096,,,,,,,,
1557947791629,0.0,,,,,,,,,
1557947791630,,,,,-14.317763328552246,1.2665714025497437,3.9146392345428467,,239.98053062156123,33.93460071877956
1557947791631,,,,5.4138292755051305,,,,,,
1557947791635,,29.121904141777442,0.0,,,,,,,
1557947791657,,,,,,,,1004.050048828125,,
1557947791675,,31.680812183370833,,,,,,,,
1557947791701,,,,3.5477811353283752,-7.1756415367126465,-3.1700198650360107,4.546727657318115,,235.67171944403702,34.8611886361204
1557947791715,,28.498304789531158,0.0,,,,,,,
1557947791748,0.0,,,,,,,,,
1557947791750,,,,2.374219163729552,-7.465348720550537,-0.1532335877418518,4.735875606536865,,252.66635708024182,35.81763771494478
1557947791755,,25.645600584210545,,,,,,,,
1557947791757,,,,,,,,1004.051513671875,,
1557947791796,,25.88950367001461,0.0,,,,,,,
1557947791809,,,,1.0884956581334022,-9.63216781616211,0.05746259540319443,3.871542453765869,,256.43731135119504,36.07412419908428
1557947791835,,18.976831835710364,,,,,,,,
1557947791858,0.0,,,,,,,1004.051513671875,,
1557947791875,,23.365845170973756,,,,,,,,
1557947791878,,,,1.3785252031105424,-8.480521202087402,-1.4341706037521362,2.822849988937378,,247.3082854122311,35.824873673913096
1557947791915,,22.561388069902005,0.0,,,,,,,
1557947791929,,,,,-7.668862342834473,-2.164424419403076,2.4684972763061523,,248.26027034855827,37.283809396261184
1557947791944,,,,2.501191618169872,,,,,,
1557947791958,,17.780158199922944,,,,,,,,
1557947791972,0.0,,,,,,,1004.048095703125,,
1557947791996,,12.276156558145672,0.0,,,,,,,
1557947791998,,,,2.3472710164833965,-7.182824611663818,-0.16999350488185883,2.0878076553344727,,270.5966281799008,37.87449631576265
1557947792035,,17.23527338328989,,,,,,,,
1557947792058,,,,2.4358631408969633,-7.379155158996582,-1.5969812870025635,2.011190891265869,1004.03759765625,263.132481341695,38.67957563143807
1557947792075,,16.406008578986807,0.0,,,,,,,
1557947792087,0.0,,,,,,,,,
1557947792115,,17.017725314133866,,,,,,,,
1557947792118,,,,2.205688175929965,-7.592245578765869,-1.429382085800171,1.5155760049819946,,268.37614051091884,38.6974864233918
1557947792155,,22.46175219992443,,,,,,,,
1557947792174,,,,1.1092081078732048,-8.87078857421875,-0.8523618578910828,1.144463300704956,1004.03759765625,278.93503923186825,39.66417384906956
1557947792195,,15.138862018172912,0.0,,,,,,,
1557947792202,0.0,,,,,,,,,
1557947792231,,,,1.1144657726619775,-9.347249031066895,-0.9720755815505981,0.7541965842247009,,,
1557947792235,,18.276630001108497,,,,,,,,
1557947792257,,,,,,,,1004.026123046875,,
1557947792276,,18.66116473735427,0.0,,,,,,,
1557947792289,,,,0.8782372195939759,,,,,288.09049117273094,40.4463199157422
1557947792290,,,,,-10.237918853759766,-0.30886146426200867,-0.5794144868850708,,297.36210414080807,
1557947792314,0.0,,,,,,,,,
1557947792315,,20.0197494013176,,,,,,,,
1557947792355,,18.557978853578003,0.0,,,,,,,
1557947792370,,,,2.053220508043615,-10.735928535461426,-0.5770202279090881,-0.5554717779159546,1004.02978515625,295.26152044270566,41.46104206713337
1557947792395,,21.031538131848745,,,,,,,,
1557947792409,,,,2.2261592031273185,-10.673677444458008,-1.1971373558044434,-0.9146129488945007,,293.7510377681357,41.07568602552673
1557947792423,0.0,,,,,,,,,
1557947792435,,20.313168457750642,,,,,,,,
1557947792457,,,,,,,,1004.02978515625,,
1557947792472,,,,3.709717110184772,-12.737542152404785,-1.9010541439056396,2.636096477508545,,287.69761869167183,42.07369189633712
1557947792475,,21.825184899256804,0.0,,,,,,,
1557947792515,,22.213269875021908,,,,,,,,
1557947792529,,,,4.707340417102872,-6.720729351043701,0.47646069526672363,4.886714935302734,,292.40176804854553,42.72829820618229
1557947792543,0.0,,,,,,,,,
1557947792555,,23.36029524053925,0.0,,,,,,,
1557947792563,,,,,,,,1004.03662109375,,
1557947792589,,,,3.3031875416763485,-8.078283309936523,-1.3431881666183472,4.956148624420166,,289.56496508999663,43.12451738011196
1557947792595,,17.486801454519494,,,,,,,,
1557947792635,,18.28785534663073,0.0,,,,,,,
1557947792651,,,,1.9723531660151201,-11.176474571228027,-0.19393625855445862,1.862745761871338,,302.0848179518459,42.476396190667614
1557947792652,0.0,,,,,,,,,
1557947792657,,,,,,,,1004.031982421875,,
1557947792675,,19.2610143175854,,,,,,,,
1557947792709,,,,1.4670718731478174,-8.545166969299316,-0.016759924590587616,3.818868398666382,,300.5783036171837,43.494454275694494
1557947792715,,19.813110232794145,,,,,,,,
1557947792751,0.0,,,,,,,,,
1557947792755,,16.17602931251619,0.0,,,,,,,
1557947792757,,,,,,,,1004.031982421875,,
1557947792774,,,,0.8992114838174844,-8.504464149475098,,,,,
1557947792775,,,,,,-0.0023942748084664345,2.877918243408203,,304.8670784347777,43.420643885409916
1557947792795,,12.230878217319049,,,,,,,,
1557947792829,,,,0.4411679189919074,-9.088666915893555,-0.11971373856067657,2.504411458969116,,307.4443956765686,43.1967482771418
1557947792835,,16.857620431738653,0.0,,,,,,,
1557947792875,,15.425742175511157,,,,,,,,
1557947792910,0.0,,,1.3789584228328098,-9.727938652038574,1.113337755203247,2.5929996967315674,1004.027587890625,314.2235906542381,43.355510688865
1557947792915,,21.185305318113926,,,,,,,,
1557947792916,,,0.0,,,,,,,
1557947792951,,,,1.6293157341834377,-10.271438598632812,0.8236305117607117,1.4509304761886597,,319.6206968533554,43.27609751370414
1557947792955,,21.622873022849,,,,,,,,
1557947792957,,,,,,,,1004.018310546875,,
1557947792995,,19.815756779713936,0.0,,,,,,,
1557947793009,,,,1.9482732708203356,-10.668888092041016,0.67518550157547,0.596174418926239,,324.8960890814631,43.17957934322655
1557947793033,0.0,,,,,,,,,
1557947793035,,19.72713832992728,,,,,,,,
1557947793060,,,,,,,,1004.018310546875,,
1557947793075,,23.73689544735168,,,,,,,,
1557947793087,,,,3.88422612145084,-12.127001762390137,2.4661030769348145,3.229876756668091,,317.71470182961207,43.106356461747346
1557947793120,,24.98487155665299,,,,,,,,
1557947793121,,,0.0,,,,,,,
1557947793129,,,,3.6529779383392347,-10.079896926879883,-1.4078335762023926,4.709538459777832,,301.3341869922507,43.56020684311365
1557947793143,0.0,,,,,,,,,
1557947793155,,23.544220657953716,,,,,,,,
1557947793170,,,,,,,,1004.009765625,,
1557947793195,,25.736181140065327,0.0,,,,,,,
1557947793199,,,,5.825916843542404,-5.4685235023498535,-3.3687446117401123,4.343214511871338,,290.1196106015475,42.67134758791037
1557947793235,,25.252468634248444,,,,,,,,
1557947793255,0.0,,,2.2953598318809405,-11.47336483001709,0.19633053243160248,3.447755813598633,,314.7943690726085,43.00443226115192
1557947793257,,,,,,,,1004.013671875,,
1557947793276,,30.24695746761033,0.0,,,,,,,
1557947793312,,,,2.4508485375635005,-10.190033912658691,-2.3631491661071777,2.176395893096924,,323.3502670081275,42.886570056249276
1557947793316,,40.75380217705128,,,,,,,,
1557947793356,,27.595937646802916,,,,,,,,
1557947793368,0.0,,,,,,,1004.013671875,,
1557947793372,,,,1.529113446729228,-8.078283309936523,-0.572231650352478,2.571451187133789,,320.2301819537523,43.64970064523303
1557947793395,,23.9955796324662,,,,,,,,
1557947793397,,,245.1318359375,,,,,,,
1557947793429,,,,0.8907796491238178,-9.835680961608887,-1.8962656259536743,2.628913640975952,,,
1557947793430,,,,,,,,,324.3269533235881,43.1521805772451
1557947793435,,26.934228319456885,245.1318359375,,,,,,,
1557947793457,,,,,,,,1004.018798828125,,
1557947793475,,28.127724323792947,245.1318359375,,,,,,,
1557947793487,0.0,,,,,,,,,
1557947793489,,,,0.7065686140171292,,,,,340.74744867325614,43.638439596550185
1557947793490,,,,,-6.778192043304443,-3.6656346321105957,3.256213665008545,,325.45829219733065,
1557947793516,,29.595945810766796,,,,,,,,
1557947793556,,31.804849426038473,0.0,,,,,,,
1557947793573,,,,1.1646606137606617,-8.583475112915039,-3.004814863204956,2.4349775314331055,1004.035400390625,336.85739639374543,43.7548950537403
1557947793595,,19.255874426270243,,,,,,,,
1557947793597,0.0,,,,,,,,,
1557947793611,,,,1.078749158114108,-9.529213905334473,-2.8611583709716797,2.5546913146972656,,346.52834149428924,43.1992081772711
1557947793635,,18.18629053210901,,,,,,,,
1557947793670,,,,2.673720230143683,-11.499701499938965,-2.36075496673584,3.878725290298462,1004.035400390625,347.6193062660742,43.41695484013513
1557947793675,,23.772354012044175,0.0,,,,,,,
1557947793715,,21.67909817051347,,,,,,,,
1557947793717,0.0,,,,,,,,,
1557947793728,,,,7.999258006972233,-12.38318920135498,,,,,
1557947793729,,,,,,-8.4613676071167,7.127756118774414,,340.0772005024555,43.34114212557408
1557947793755,,24.175253546110742,0.0,,,,,,,
1557947793765,,,,,,,,1004.037841796875,,
1557947793790,,,,3.407321306498372,-6.905088424682617,-1.144463300704956,6.531581878662109,,,
1557947793791,,,,,,,,,342.2393002993176,44.12550089651782
1557947793795,,25.135225980652137,,,,,,,,
1557947793835,,22.699786188623563,0.0,,,,,,,
1557947793841,0.0,,,,,,,,,
1557947793870,,,,2.6632208515456743,-7.3025383949279785,-2.4732859134674072,6.378347873687744,1004.031005859375,346.17435754904324,43.192705055064124
1557947793875,,22.222769241899634,,,,,,,,
1557947793915,,23.864008794338375,,,,,,,,
1557947793918,,,,1.5672738200762997,-8.63375473022461,-0.09577099233865738,3.0287575721740723,,2.2461512510146804,43.48452073590075
1557947793942,0.0,,,,,,,,,
1557947793955,,24.3335794731227,0.0,,,,,,,
1557947793967,,,,,,,,1004.0244140625,,
1557947793969,,,,3.1473686732617914,-6.2155375480651855,0.38547825813293457,3.064671754837036,,358.2809964525463,43.526638600539115
1557947793995,,22.951817371728925,,,,,,,,
1557947794030,,,,,,,,,354.5252533330398,43.59593521005829
1557947794031,,,,3.102614678316025,-6.742278099060059,0.12210801243782043,3.0934031009674072,,355.78338698476085,
1557947794037,,22.22913974877634,0.0,,,,,,,
1557947794052,0.0,,,,,,,,,
1557947794056,,,,,,,,1004.02001953125,,
1557947794075,,22.750422158366085,,,,,,,,
1557947794094,,,,0.9860517964560429,-8.605023384094238,-0.6536370515823364,,,,
1557947794095,,,,,,,2.791724443435669,,2.027802269523818,42.92868904761906
1557947794116,,21.411528113858797,0.0,,,,,,,
1557947794155,,16.342521485237327,,,,,,,,
1557947794158,,,,0.7596735567533944,-9.459779739379883,0.24421602487564087,3.6081721782684326,,,
1557947794159,0.0,,,,,,,1004.017578125,0.6472988419110948,44.12664329148011
1557947794195,,18.350431437012315,,,,,,,,
1557947794208,,,,2.268669765934755,-11.032817840576172,0.04070267081260681,2.6408851146698,,9.504989432959064,43.927662295223584
1557947794235,,20.719654564699397,0.0,,,,,,,
1557947794267,0.0,,,,,,,1004.016845703125,,
1557947794269,,,,3.7301870189754833,-12.830918312072754,-0.8140534162521362,3.098191499710083,,12.250524842497327,44.07011096813134
1557947794275,,23.419591323602674,,,,,,,,
1557947794315,,28.726800790407392,0.0,,,,,,,
1557947794330,,,,6.274952022779424,-13.510892868041992,0.5387118458747864,7.707170486450195,,357.742304662071,44.065086923052775
1557947794355,,29.568101425412397,,,,,,,,
1557947794356,,,,,,,,1004.021484375,,
1557947794372,0.0,,,,,,,,,
1557947794393,,,,3.1016186149382934,-7.4821085929870605,-2.796513080596924,4.489265441894531,,350.7909105835852,44.98223425595078
1557947794395,,26.292760764749236,0.0,,,,,,,
1557947794435,,23.46288647507681,,,,,,,,
1557947794458,,,,3.3804431396811983,-7.474925994873047,-3.814079761505127,3.8332340717315674,,,44.337765988916054
1557947794459,,,,,,,,1004.02001953125,0.5568347472624282,
1557947794475,,19.989277130498195,,,,,,,,
1557947794478,0.0,,,,,,,,,
1557947794509,,,,1.148717366067388,-9.347249031066895,-1.5419130325317383,2.5546913146972656,,13.565344795461215,45.27205677651168
1557947794523,,27.79283927319478,0.0,,,,,,,
1557947794555,,23.440479046376012,,,,,,,,
1557947794557,,,,,,,,1004.02978515625,,
1557947794581,,,,1.3553638252741196,-8.188420295715332,-1.783734679222107,2.6145482063293457,,,45.885995936289646
1557947794582,0.0,,,,,,,,14.905204221922418,
1557947794595,,27.56709401144294,0.0,,,,,,,
1557947794630,,,,4.611856704140045,-5.106987953186035,-2.3655436038970947,1.2043201923370361,,25.906924597331283,46.327185808684746
1557947794635,,31.17683060330758,,,,,,,,
1557947794656,,,,,,,,1004.022705078125,,
1557947794675,,28.087711633847583,0.0,,,,,,,
1557947794691,0.0,,,2.878990886380981,-6.079063892364502,-1.4581133127212524,3.1197400093078613,,5.4525613587623525,46.478006227773356
1557947794716,,23.596956963997833,,,,,,,,
1557947794751,,,,1.6590923894825718,-7.467742919921875,-3.66084623336792,3.2705793380737305,,,46.38547070492108
1557947794752,,,,,,,,,14.47067953975727,
1557947794755,,21.306254615506553,,,,,,,,
1557947794756,,,,,,,,1004.017578125,,
1557947794791,0.0,,,,,,,,,
1557947794795,,21.481631916971278,0.0,,,,,,,
1557947794810,,,,2.383379159055544,-10.075108528137207,-3.598595142364502,2.8946783542633057,,20.70071023268474,47.225336033624714
1557947794837,,22.009230493260393,,,,,,,,
1557947794856,,,,,,,,1004.00537109375,,
1557947794875,,22.004655257912855,0.0,2.452497268348596,-10.345661163330078,-2.6744048595428467,2.7989072799682617,,21.07945617499297,47.16633534710624
1557947794890,0.0,,,,,,,,,
1557947794915,,27.43894002398558,,,,,,,,
1557947794928,,,,4.878128221841905,-12.629799842834473,-3.8667538166046143,6.337645530700684,,11.461135974456852,46.89781922000388
1557947794955,,29.3094816528617,0.0,,,,,,,
1557947794956,,,,,,,,1004.006591796875,,
1557947794992,0.0,,,3.3880402869629496,-9.931451797485352,-4.3863115310668945,6.445387840270996,,5.987836026940215,46.711994566818966
1557947794995,,30.226539362750277,,,,,,,,
1557947795035,,26.20746694159069,,,,,,,,
1557947795049,,,,4.088847945418361,-6.01202392578125,0.6416656374931335,5.916253089904785,,355.8746844158491,46.74446557852911
1557947795056,,,,,,,,1004.00244140625,,
1557947795075,,22.643706887753787,0.0,,,,,,,
1557947795093,0.0,,,,,,,,,
1557947795115,,23.610518694868684,,,,,,,,
1557947795116,,,,0.7667246337067828,-7.9849066734313965,-1.5969812870025635,4.427014350891113,,9.058244688595096,46.261945737992555
1557947795155,,20.48373091505027,0.0,,,,,,,
1557947795163,,,,,,,,1003.998779296875,,
1557947795168,,,,,,,,,5.179709388685467,47.011100691889176
1557947795169,,,,1.2485679529661704,-8.087860107421875,-0.3136500120162964,2.478074312210083,,16.387396252950225,
1557947795194,0.0,,,,,,,,,
1557947795195,,19.48800389501292,,,,,,,,
1557947795229,,,,2.5603388535232674,-6.996070861816406,0.2178790122270584,2.418217658996582,,13.562465016952444,46.52418725781247
1557947795235,,23.261604670183125,0.0,,,,,,,
1557947795256,,,,,,,,1003.9931640625,,
1557947795275,,25.091323919659416,,,,,,,,
1557947795299,0.0,,,2.183514916049542,-7.592245578765869,0.8308133482933044,2.791724443435669,,8.391770197310905,47.40231506382401
1557947795317,,18.27362678396099,,,,,,,,
1557947795352,,,,1.3437235186429306,-8.193208694458008,-0.35674694180488586,2.506805658340454,,10.139776969136278,46.88707105015188
1557947795355,,19.101111373698984,0.0,,,,,,,
1557947795356,,,,,,,,1003.986572265625,,
1557947795395,,17.91815520222187,,,,,,,,
1557947795413,,,,1.271819133609458,-8.722343444824219,0.5985686779022217,2.9665064811706543,,7.397405644731066,47.10015165690895
1557947795414,0.0,,,,,,,,,
1557947795436,,21.159329970884787,0.0,,,,,,,
1557947795467,,,,,,,,1003.976318359375,,
1557947795468,,,,2.091334871620891,-10.927470207214355,0.17957061529159546,2.6241252422332764,,14.098272012998791,47.367519218902814
1557947795476,,16.70460434805557,,,,,,,,
1557947795515,,21.193430603067522,0.0,,,,,,,
1557947795517,0.0,,,,,,,,,
1557947795528,,,,3.9749679516154126,-13.185271263122559,-0.1245022863149643,2.5522968769073486,,17.55925351639661,47.087653094912454
1557947795555,,26.95031236913784,,,,,,,,
1557947795561,,,,,,,,1003.972412109375,,
1557947795588,,,,6.656717060161335,-14.032844543457031,1.6161354780197144,7.146910190582275,,0.06325346809887833,47.54960970447068
1557947795595,,29.029868790535218,,,,,,,,
1557947795625,0.0,,,,,,,,,
1557947795636,,25.799695016186625,0.0,,,,,,,
1557947795649,,,,3.6311129624579803,-8.344047546386719,-3.8523881435394287,4.015198707580566,,359.5986651013222,46.962525204929705
1557947795656,,,,,,,,1003.97265625,,
1557947795675,,19.517019822211456,,,,,,,,
1557947795715,,18.47787330499509,0.0,,,,,,,
1557947795717,,,,2.862936334795499,-7.37197208404541,-2.9018609523773193,3.7637999057769775,,357.513475395629,47.67723857323706
1557947795742,0.0,,,,,,,,,
1557947795755,,26.979258525077388,,,,,,,,
1557947795771,,,,1.017801095619294,-9.385557174682617,-1.7933118343353271,2.504411458969116,1003.972412109375,,
1557947795772,,,,,,,,,18.172471315174903,47.92685419441192
1557947795795,,25.699992418406406,0.0,,,,,,,
1557947795828,,,,,,,,,15.484148131445636,48.20076553180008
1557947795829,,,,1.6861561263120934,-7.82209587097168,-1.4365649223327637,2.2147042751312256,,14.205289124461842,
1557947795838,,24.783038587933333,,,,,,,,
1557947795853,0.0,,,,,,,,,
1557947795857,,,,,,,,1003.966552734375,,
1557947795876,,21.239404855399734,0.0,,,,,,,
1557947795903,,,,3.3406424654868943,-6.25145149230957,-1.5850099325180054,1.5586729049682617,,18.301594333886726,47.904279168903706
1557947795917,,29.253837229768116,,,,,,,,
1557947795950,,,,2.967074433352524,-6.143709182739258,-1.393467903137207,2.7486274242401123,,4.909403798508606,48.42758129862759
1557947795955,,33.84738037177183,,,,,,,,
1557947795956,,,,,,,,1003.962158203125,,
1557947795971,0.0,,,,,,,,,
1557947795995,,26.229508184981487,0.0,,,,,,,
1557947796014,,,,1.7066338467174131,-7.496474266052246,-3.5411324501037598,3.225088119506836,,13.987798825815673,48.33695457303482
1557947796037,,20.75045999614251,,,,,,,,
1557947796065,,,,,,,,1003.951171875,,
1557947796068,,,,,-9.835680961608887,,,,,
1557947796069,,,,1.8675998886745646,,-2.88031268119812,3.011997699737549,,20.580210327800103,48.107465165923664
1557947796075,,17.831327147848985,0.0,,,,,,,
1557947796091,0.0,,,,,,,,,
1557947796116,,18.048276247100453,,,,,,,,
1557947796128,,,,2.8594903974750383,-10.434249877929688,-2.7342617511749268,2.195549964904785,,24.593482635032444,47.36318574690765
1557947796155,,23.258664362411892,0.0,,,,,,,
1557947796162,,,,,,,,1003.9443359375,,
1557947796188,,,,4.271830868719789,-12.179676055908203,-3.9457647800445557,5.815693378448486,,13.532897981809072,47.42053768520822
1557947796195,,26.569213446416548,,,,,,,,
1557947796206,0.0,,,,,,,,,
1557947796235,,28.396404867468583,,,,,,,,
1557947796253,,,,4.301811794674062,-10.120599746704102,,,,14.248727420035834,47.15167649302527
1557947796254,,,,,,-4.714327335357666,5.925830364227295,,,
1557947796256,,,,,,,,1003.949462890625,,
1557947796275,,24.33622905990483,0.0,,,,,,,
1557947796308,,,,4.44284273267029,-5.767807960510254,,,,,
1557947796309,,,,,,0.03351984918117523,6.636929988861084,,348.78909483597573,46.39195060212674
1557947796322,,20.023130211792363,,,,,,,,
1557947796331,0.0,,,,,,,,,
1557947796355,,19.558861907325763,0.0,,,,,,,
1557947796358,,,,,,,,1003.946044921875,,
1557947796383,,,,,-7.781393051147461,-1.1109435558319092,4.453351020812988,,8.638063403686942,
1557947796384,,,,1.0943361619019436,,,,,6.17285091051707,45.844279010240214
1557947796395,,22.61234538156657,,,,,,,,
1557947796428,,,,1.7190344835143576,-8.384750366210938,0.22506183385849,2.638490915298462,,,
1557947796429,,,,,,,,,18.078926751849735,45.79026028497703
1557947796435,,21.291229731365288,0.0,,,,,,,
1557947796447,0.0,,,,,,,,,
1557947796456,,,,,,,,1003.950927734375,,
1557947796475,,22.099798076992965,,,,,,,,
1557947796496,,,,2.5931309340402886,-6.950579643249512,-0.026337023824453354,2.229069948196411,,,
1557947796497,,,,,,,,,17.307463715285962,46.252722368542436
1557947796515,,18.473641795413325,,,,,,,,
1557947796549,,,,2.1267999991511095,-7.558725357055664,0.6392713785171509,2.7342617511749268,,11.297894453293566,45.559677336591065
1557947796550,0.0,,,,,,,,,
1557947796556,,,,,,,,1003.947265625,,
1557947796557,,19.947888396024243,0.0,,,,,,,
1557947796596,,18.36225768653857,,,,,,,,
1557947796608,,,,1.610123839739315,-8.547560691833496,0.6320885419845581,2.2841382026672363,,14.494969399993124,45.792463131312005
1557947796635,,25.122150343712452,0.0,,,,,,,
1557947796670,0.0,,,1.5937983935619582,-8.846845626831055,0.5458946824073792,2.8731298446655273,1003.946533203125,15.2656759931063,45.392287467202344
1557947796676,,19.288769505686886,,,,,,,,
1557947796716,,18.88710423338186,0.0,,,,,,,
1557947796728,,,,1.7834528636387588,-10.71198558807373,-0.3184385597705841,2.4349775314331055,,20.11096096389457,44.69887149825111
1557947796755,,17.957342432597045,,,,,,,,
1557947796762,,,,,,,,1003.950439453125,,
1557947796785,0.0,,,,,,,,,
1557947796788,,,,3.160962807011429,-12.198830604553223,0.46448931097984314,2.4613144397735596,,21.264139367508278,44.06602669739894
1557947796795,,21.036738171837463,,,,,,,,
1557947796835,,25.72640482588639,0.0,,,,,,,
1557947796848,,,,6.102315194450536,-14.81577205657959,0.14605076611042023,5.573871612548828,,11.06249795996456,43.800861976084725
1557947796859,,,,,,,,1003.94921875,,
1557947796875,,25.932866950778752,,,,,,,,
1557947796885,0.0,,,,,,,,,
1557947796910,,,,6.102035758094704,-9.747093200683594,-2.1141445636749268,3.538738250732422,,10.462733072530227,43.40808218705032
1557947796916,,24.08393812237509,0.0,,,,,,,
1557947796955,,20.3104187432163,,,,,,,,
1557947796962,,,,,,,,1003.943115234375,,
1557947796987,,,,3.201061942800468,-6.902694225311279,-2.578634023666382,4.15167236328125,,352.83035811220043,43.81766692677745
1557947796988,0.0,,,,,,,,,
1557947796995,,20.109807967843373,0.0,,,,,,,
1557947797035,,21.825928753558745,,,-9.186832427978516,-1.1636176109313965,2.387091875076294,,,
1557947797036,,,,0.714902573129962,,,,,23.7766620197379,43.77541643761372
1557947797059,,,,,,,,1003.94970703125,,
1557947797075,,25.953706048383705,,,,,,,,
1557947797088,,,,1.288466344598857,-8.344047546386719,-1.6352896690368652,2.4277946949005127,,24.186652662404356,43.63588306738571
1557947797106,0.0,,,,,,,,,
1557947797116,,24.389592065447253,0.0,,,,,,,
1557947797149,,,,2.155610031027291,-7.747873306274414,-1.6664152145385742,1.5850099325180054,,31.392867651888423,
1557947797150,,,,,,,,,,42.420041761040544
1557947797155,,23.125517721399564,,,,,,,,
1557947797156,,,,,,,,1003.9326171875,,
1557947797195,,22.68240378713143,0.0,,,,,,,
1557947797215,,,,2.6344184844748515,-6.598621368408203,-1.3527653217315674,2.48046875,,20.5923424513133,43.217911805206576
1557947797216,0.0,,,,,,,,,
1557947797236,,37.27910674524493,,,,,,,,
1557947797260,,,,,,,,1003.930419921875,,
1557947797276,,27.274771668740726,,,,,,,,
1557947797278,,,127.39583333333334,,,,,,,
1557947797284,,,,1.9564348176177908,-6.854808807373047,-2.164424419403076,3.249030828475952,,17.61830562441321,43.550825088270614
1557947797316,,21.595849246329564,127.39583333333334,,,,,,,
1557947797331,0.0,,,1.248538307063633,-8.35362434387207,-2.82045578956604,3.0239691734313965,,30.54685651562852,42.76417536298719
1557947797355,,20.232314563943454,127.39583333333334,,,,,,,
1557947797356,,,,,,,,1003.922119140625,,
1557947797395,,14.131039016620885,127.39583333333334,,,,,,,
1557947797416,,,,1.8200215119358623,-9.203592300415039,-3.5435266494750977,2.9928436279296875,,35.20630569947912,43.733618419086405
1557947797435,,18.89508142653706,,,,,,,,
1557947797444,0.0,,,,,,,,,
1557947797448,,,,3.6472840538184412,-11.396748542785645,-2.008796453475952,2.667222023010254,,32.20791754064061,43.26445212851952
1557947797449,,,,,,,,,29.761302798807037,
1557947797473,,,,,,,,1003.916748046875,,
1557947797475,,27.683893148051638,0.0,,,,,,,
1557947797508,,,,8.408622095034916,-13.613846778869629,-7.541965484619141,8.616994857788086,,22.639218664424618,43.28716139942251
1557947797516,,27.60332714208584,,,,,,,,
1557947797555,,29.168354634947946,0.0,,,,,,,
1557947797561,0.0,,,,,,,1003.916748046875,,
1557947797592,,,,2.8725369725118015,-7.199584484100342,-1.0870007276535034,6.715940952301025,,4.483188468355593,43.27131492402927
1557947797596,,23.548420577358428,,,,,,,,
1557947797628,,,,2.8370386093034954,-6.890722751617432,-0.4597007632255554,6.160469055175781,,6.880500343439053,42.950738663633125
1557947797635,,22.12018404253029,,,,,,,,
1557947797658,,,,,,,,1003.919677734375,,
1557947797675,,23.664663707382637,0.0,,,,,,,
1557947797686,0.0,,,,,,,,,
1557947797688,,,,2.0239392693119616,-8.293767929077148,0.7613793611526489,4.549122333526611,,15.564889505171664,43.61706873252153
1557947797717,,23.883312215780983,,,,,,,,
1557947797748,,,,1.6069477628942699,-7.939415454864502,-0.2944957911968231,2.8013014793395996,,25.758992945192574,42.42984172366274
1557947797756,,18.516569382724697,,,,,,,,
1557947797757,,,0.0,,,,,,,
1557947797767,,,,,,,,1003.920166015625,,
1557947797794,0.0,,,,,,,,,
1557947797795,,20.061918626013473,,,,,,,,
1557947797817,,,,2.2777782830441957,-7.029590606689453,-0.27534160017967224,2.7390503883361816,,22.08859954938947,43.264160231333065
1557947797835,,20.635486496341194,0.0,,,,,,,
1557947797859,,,,,,,,1003.920166015625,,
1557947797875,,19.617142809469875,,,,,,,,
1557947797885,,,,2.3357258066049056,-7.290566921234131,0.7470137476921082,2.9665064811706543,,17.179553055151814,43.281796657550146
1557947797910,0.0,,,,,,,,,
1557947797916,,18.78608412326642,,,,,,,,
1557947797935,,,,0.7302964767245703,-8.559532165527344,-0.2897072434425354,3.249030828475952,,19.84157830302928,43.44687745875575
1557947797955,,18.60290462153419,0.0,,,,,,,
1557947797966,,,,,,,,1003.9072265625,,
1557947797993,,,,1.5506434919922156,,,,,,
1557947797994,,,,,-9.876383781433105,0.4381522834300995,3.0239691734313965,,24.533754338287963,43.30395724323814
1557947797996,,20.69528408073397,,,,,,,,
1557947798021,0.0,,,,,,,,,
1557947798036,,20.90629092406076,0.0,,,,,,,
1557947798048,,,,3.3110362723623874,-12.174887657165527,0.12689656019210815,2.6767992973327637,,30.694378356417076,43.612900679842895
1557947798069,,,,,,,,1003.904296875,,
1557947798075,,24.871255440857638,,,,,,,,
1557947798115,,26.034935764601066,0.0,5.112823162731074,-14.028056144714355,-0.6680026650428772,5.035160064697266,,27.648950684764714,43.007025887518665
1557947798138,0.0,,,,,,,,,
1557947798156,,27.195558147580808,,,,,,,,
1557947798161,,,,,,,,1003.904296875,,
1557947798185,,,,1.9712365811217185,-9.464568138122559,-1.3527653217315674,5.004034519195557,,17.871613435066934,42.76261764414737
1557947798196,,24.128461033838605,,,,,,,,
1557947798232,,,,3.955960429172073,-6.799740314483643,-3.7901370525360107,4.5419392585754395,,21.074893608627406,43.10781763625334
1557947798235,,20.51248802815806,0.0,,,,,,,
1557947798254,0.0,,,,,,,,,
1557947798255,,,,,,,,1003.90283203125,,
1557947798275,,21.069848703359796,,,,,,,,
1557947798297,,,,1.1022358993663142,-9.210775375366211,-2.075836181640625,3.2394537925720215,,30.42950020530941,43.08543018503039
1557947798315,,26.99559987860691,0.0,,,,,,,
1557947798347,,,,1.0204733518777942,-8.463761329650879,-1.5490957498550415,2.7653872966766357,,31.21931596017299,43.88482116787956
1557947798355,,24.1028742823792,,,,,,,,
1557947798365,0.0,,,,,,,1003.8955078125,,
1557947798395,,19.272294889358562,0.0,,,,,,,
1557947798410,,,,1.5374294854097934,-8.123774528503418,-1.7358492612838745,2.2530126571655273,,34.22534027050352,43.33653330075242
1557947798435,,20.53922976587271,,,,,,,,
1557947798457,,,,,,,,1003.8955078125,,
1557947798475,,25.864361149163173,,,,,,,,
1557947798476,,,0.0,,,,,,,
1557947798483,0.0,,,3.0551727768010037,-6.349617004394531,-1.1157320737838745,2.099778890609741,,28.905005397657135,44.73047179845092
1557947798516,,35.90767109768077,,,,,,,,
1557947798528,,,,2.301427468704429,,,,,,
1557947798529,,,,,-6.603409767150879,-2.509200096130371,3.007209062576294,,30.62095723793402,44.58338998312141
1557947798556,,26.61793911811216,,,,,,1003.88671875,,
1557947798595,,18.407929150409103,,,,,,,,
1557947798597,,,408.818359375,,,,,,,
1557947798598,0.0,,,1.2745951439837258,-7.8580098152160645,-3.067065954208374,3.1364998817443848,,32.50913229813278,44.165298179847284
1557947798635,,21.731647874587814,408.818359375,,,,,,,
1557947798648,,,,1.6959729292616466,-9.119792938232422,,,,,
1557947798669,,,,,,,,1003.880859375,,
1557947798675,,19.428344937700956,408.818359375,,,,,,,
1557947798715,,22.451950113200017,,,,,,,,
1557947798716,0.0,,,3.1674661296427593,-10.793391227722168,-1.5730385780334473,3.2777621746063232,,27.518792892393662,45.38277201424591
1557947798756,,24.170129471389874,,,,,,,,
1557947798757,,,0.0,,,,,,,
1557947798767,,,,,,,,1003.880859375,,
1557947798769,,,,9.322610781178401,-13.0440092086792,-9.148524284362793,9.261054992675781,,26.16120570994167,45.07277905153885
1557947798795,,27.025770585627924,,,,,,,,
1557947798817,0.0,,,,,,,,,
1557947798827,,,,3.258278500094749,-8.035185813903809,0.016759924590587616,,,,
1557947798828,,,,,,,6.457359313964844,,12.867109070762808,45.5273497927723
1557947798835,,24.212951361900235,,,,,,,,
1557947798863,,,,,,,,1003.882080078125,,
1557947798875,,24.516672346443947,0.0,,,,,,,
1557947798887,,,,3.8031125421876384,-6.864386081695557,-0.4860377907752991,7.99208927154541,,3.8719761838722775,45.45537402701465
1557947798915,,19.969908994479308,,,,,,,,
1557947798932,0.0,,,,,,,,,
1557947798947,,,,0.7616105222842668,-7.834067344665527,-1.0630580186843872,4.455745220184326,,20.53530012645996,44.68719110859429
1557947798955,,19.313148558696902,0.0,,,,,,,
1557947798957,,,,,,,,1003.87158203125,,
1557947798995,,19.062268964123145,,,,,,,,
1557947799013,,,,2.245047098188253,-7.020013809204102,0.05746259540319443,3.2705793380737305,,24.28934797167011,45.57646673048506
1557947799035,,21.942137653739103,,,,,,,,
1557947799036,,,0.0,,,,,,,
1557947799057,0.0,,,,,,,1003.87158203125,,
1557947799076,,21.60414421886552,,,,,,,,
1557947799086,,,,2.4574877583226957,-7.003253936767578,0.4022381603717804,2.7797529697418213,,25.401738193107747,44.89916625538919
1557947799118,,18.44313012265404,,,,,,,,
1557947799140,,,,1.5961943189069863,-7.755055904388428,-0.24421602487564087,2.8659470081329346,,26.241236743994023,44.881602331106905
1557947799160,,22.013491206659165,0.0,,,,,,,
1557947799166,0.0,,,,,,,1003.8681640625,,
1557947799193,,,,1.1689994117500384,-8.305739402770996,0.31125572323799133,3.0598831176757812,,26.002333802299916,44.609786177060585
1557947799195,,16.77258203667344,,,,,,,,
1557947799236,,17.440489338847925,0.0,,,,,,,
1557947799247,,,,,-8.765439987182617,0.96010422706604,2.882706880569458,,24.705840954426435,44.93587335889189
1557947799248,,,,1.4628305664772296,,,,,,
1557947799265,0.0,,,,,,,1003.864990234375,,
1557947799275,,19.0605270739008,,,,,,,,
1557947799316,,18.5977053004361,0.0,,,,,,,
1557947799317,,,,1.0536906865306677,-9.09106159210205,0.08619388937950134,2.691164970397949,,30.319882499319874,44.40291836380142
1557947799356,,21.010636467815914,,,,,,,,
1557947799360,,,,,,,,1003.864990234375,,
1557947799385,0.0,,,1.888778289037753,-10.106233596801758,1.0175668001174927,2.5642683506011963,,29.08324942933234,43.97889384191412
1557947799395,,24.592360208284624,,,,,,,,
1557947799430,,,,4.307307558902942,-13.340899467468262,0.6656084060668945,4.23068380355835,,28.14507342795963,44.319330081490115
1557947799435,,22.63968678377485,0.0,,,,,,,
1557947799457,,,,,,,,1003.8671875,,
1557947799475,,24.145640866100116,,,,,,,,
1557947799487,,,,5.302434563635439,-14.250723838806152,0.5530774593353271,4.802915096282959,,27.202299001728193,43.53457775566192
1557947799512,0.0,,,,,,,,,
1557947799516,,26.480124274878357,0.0,,,,,,,
1557947799548,,,,2.497791840968848,-7.474925994873047,-1.7310607433319092,4.21152925491333,,22.076972859874786,43.57528466493794
1557947799556,,28.488709534347997,,,,,,,,
1557947799562,,,,,,,,1003.85400390625,,
1557947799596,,18.397259567558724,0.0,,,,,,,
1557947799612,,,,1.4500108389613744,-8.375173568725586,,,,,
1557947799613,0.0,,,,,-0.8906702399253845,4.21152925491333,,21.47193421262756,43.96448450437691
1557947799636,,23.8813585335826,,,,,,,,
1557947799661,,,,,,,,1003.85400390625,,
1557947799676,,25.877726693497948,,,,,,,,
1557947799687,,,,1.6025580312662784,-9.603436470031738,-0.2944957911968231,,,26.9571635124164,43.061317922513204
1557947799688,,,,,,,2.2099156379699707,,,
1557947799716,,24.29338395837283,0.0,,,,,,,
1557947799732,,,,1.5088167947238968,,,,,,
1557947799733,0.0,,,,-8.506858825683594,-0.023942748084664345,1.5443072319030762,,38.60506930217997,43.29901184233685
1557947799755,,17.948585697238315,,,,,,1003.851806640625,,
1557947799788,,,,1.7733494404847645,-7.726325035095215,-0.6153286099433899,2.5187771320343018,,34.81287314290802,42.53915258028946
1557947799796,,21.61682004258061,0.0,,,,,,,
1557947799835,,21.93164051479974,,,,,,,,
1557947799846,0.0,,,,,,,,,
1557947799847,,,,2.6202482175818234,-6.885934352874756,-0.5099805593490601,2.5499026775360107,,,43.07970605680874
1557947799848,,,,,,,,,37.222051617900775,
1557947799876,,23.13763230805353,0.0,,,,,1003.837890625,,
1557947799907,,,,1.880811649085396,-7.666468143463135,-0.651242733001709,2.233858346939087,,,42.22555109540513
1557947799908,,,,,,,,,44.56616471163278,
1557947799916,,19.925880794463474,,,,,,,,
1557947799952,0.0,,,,,,,,,
1557947799955,,20.05601668036992,,,,,,1003.837890625,,
1557947799976,,,,1.3936255155660429,,,,,,
1557947799977,,,,,-8.166871070861816,-0.5339232683181763,2.0207679271698,,49.33798416770844,42.18294353942155
1557947799995,,18.141614931782136,0.0,,,,,,,
1557947800027,,,,1.2189666848860143,-8.621783256530762,-1.082212209701538,1.69035804271698,,58.3770121190737,42.469022554916684
1557947800036,,20.150949398081973,,,,,,,,
1557947800055,,,,,,,,1003.837646484375,,
1557947800073,0.0,,,,,,,,,
1557947800076,,20.476434569411552,0.0,,,,,,,
1557947800098,,,,1.6207987689310126,-9.909903526306152,-0.9553156495094299,0.35195839405059814,,63.406408254034204,41.86482372157986
1557947800115,,21.03966530510592,,,,,,,,
1557947800147,,,,2.636627873867977,-10.606637001037598,0.46927785873413086,-1.2929084300994873,,63.54756094342173,41.1479710470895
1557947800155,,22.890398403028463,0.0,,,,,,,
1557947800171,,,,,,,,1003.83740234375,,
1557947800195,0.0,,,,,,,,,
1557947800196,,29.13460924317267,,,,,,,,
1557947800220,,,,1.8432574503261836,-10.122993469238281,-1.484450340270996,-0.19393625855445862,,75.3502371122305,40.99664348301919
1557947800235,,28.89977190856978,,,,,,,,
1557947800266,,,,,,,,1003.836669921875,,
1557947800270,,,,4.1557708693520015,-13.108654975891113,-1.8986599445343018,2.444554567337036,,78.18938282566467,41.120009343669444
1557947800275,,29.17789125930049,0.0,,,,,,,
1557947800314,0.0,,,,,,,,,
1557947800316,,20.001526163664835,,,,,,,,
1557947800338,,,,3.2627920611965044,,,,,,
1557947800339,,,,,-8.016032218933105,1.5874042510986328,3.378321647644043,,43.28129684572667,41.27467979224691
1557947800355,,23.408205569406135,0.0,,,,,,,
1557947800363,,,,,,,,1003.83935546875,,
1557947800393,,,,4.794379464292729,-7.434223175048828,0.7374366521835327,5.9976582527160645,,23.419670229936116,40.39158745568497
1557947800396,,24.6813541386206,,,,,,,,
1557947800422,0.0,,,,,,,,,
1557947800436,,30.053043240345445,0.0,,,,,,,
1557947800452,,,,1.147408160355414,-10.570723533630371,0.1604164093732834,2.597788095474243,,77.6665796560244,40.80943938703342
1557947800455,,,,,,,,1003.8359375,,
1557947800475,,19.815859525709957,,,,,,,,
1557947800507,,,,1.1217733310545668,-8.68403434753418,-0.29928433895111084,3.105374336242676,,83.06354925135838,41.14000855130975
1557947800515,,23.995275470666584,,,,,,,,
1557947800525,0.0,,,,,,,,,
1557947800555,,19.013477186943387,0.0,,,,,1003.828857421875,,
1557947800573,,,,1.07273951552492,-8.363202095031738,-0.17957061529159546,2.454131603240967,,95.08852075689435,40.70711425832294
1557947800595,,25.004631612201468,,,,,,,,
1557947800627,,,,0.6982232151254945,-9.179649353027344,0.6344828009605408,2.267378330230713,,86.53056010424598,40.56545685467963
1557947800635,,23.587450347341864,0.0,,,,,,,
1557947800643,0.0,,,,,,,,,
1557947800666,,,,,,,,1003.827880859375,,
1557947800676,,17.25981969080675,,,,,,,,
1557947800688,,,,0.7281992534710107,,,,,,
1557947800689,,,,,-9.759063720703125,0.6608198285102844,1.8196488618850708,,88.29910781622658,41.009943303973905
1557947800716,,19.64581894547565,0.0,,,,,,,
1557947800747,,,,,-9.383162498474121,,,,,
1557947800748,,,,1.33516403026334,,1.2761484384536743,2.047105073928833,,86.66725268010543,40.07416005104023
1557947800756,,20.68230049005894,,,,,,,,
1557947800761,0.0,,,,,,,1003.830322265625,,
1557947800796,,18.405157579531433,,,,,,,,
1557947800819,,,,1.7217948991868115,-10.484529495239258,0.05506832152605057,0.3136500120162964,,96.90985217078077,40.766324140102135
1557947800836,,22.6843017446518,0.0,,,,,,,
1557947800875,,23.501128078315723,,,,,,1003.833984375,,
1557947800876,0.0,,,3.5826375566735456,-10.1852445602417,3.5124011039733887,1.4030450582504272,,77.25675464544531,40.20720730541781
1557947800915,,27.086405443886537,0.0,,,,,,,
1557947800927,,,,4.970236885673261,-12.828524589538574,2.6241252422332764,4.273780345916748,,81.72233232479965,39.73513166527486
1557947800955,,25.7700368750346,,,,,,,,
1557947800973,,,,,,,,1003.824951171875,,
1557947800995,,24.611269430326466,0.0,,,,,,,
1557947800998,,,,4.215591491611291,-8.937828063964844,-3.6464805603027344,2.2793495655059814,,135.47330513034788,40.40049815023767
1557947800999,0.0,,,,,,,,,
1557947801037,,26.56530600712193,,,,,,,,
1557947801046,,,,3.764920497222064,,,,,,
1557947801047,,,,,-6.845231533050537,-3.0503060817718506,3.44057297706604,,138.91759194386688,40.19131142440706
1557947801067,,,,,,,,1003.826171875,,
1557947801075,,23.23126936011826,,,,,,,,
1557947801112,0.0,,,1.786490111073014,-11.356045722961426,0.20590762794017792,1.951333999633789,,108.72146905721308,39.611360421706244
1557947801115,,31.54377387823509,0.0,,,,,,,
1557947801155,,29.858099876551943,,,,,,1003.83544921875,,
1557947801178,,,,1.8059174941090677,-8.9019136428833,-1.7190892696380615,2.4086403846740723,,117.03828305102496,39.72679705245102
1557947801196,,20.80083037650724,0.0,,,,,,,
1557947801225,0.0,,,,,,,,,
1557947801227,,,,2.0012520209069327,-8.68403434753418,-2.288926601409912,2.731867551803589,,143.9248992470516,38.86897943250677
1557947801236,,24.170817428312578,,,,,,,,
1557947801255,,,,,,,,1003.8271484375,,
1557947801276,,24.544715142026654,0.0,,,,,,,
1557947801287,,,,1.3914267982366424,-9.73272705078125,-2.5618741512298584,2.047105073928833,,143.7337359125613,38.999490681887856
1557947801315,,23.21696100600871,,,,,,,,
1557947801342,0.0,,,,,,,,,
1557947801347,,,,0.6507350708329441,-9.577098846435547,-2.104567527770996,2.762993097305298,,148.88644428279724,39.35208661126372
1557947801355,,24.321472454279608,0.0,,,,,,,
1557947801370,,,,,,,,1003.831298828125,,
1557947801396,,20.583967550954753,,,,,,,,
1557947801428,,,,1.2366778465152946,-8.164477348327637,-2.7342617511749268,3.004814863204956,,162.89247117596042,38.28912077393673
1557947801436,,20.736456273462537,,,,,,,,
1557947801458,0.0,,,,,,,1003.8310546875,,
1557947801475,,18.77049274347942,0.0,,,,,,,
1557947801483,,,,1.6554148745805148,-7.436617374420166,-2.822849988937378,2.7175018787384033,,163.83382150774992,37.41128588879335
1557947801516,,19.76038414234394,,,,,,,,
1557947801533,,,,1.9318664233666165,-8.427846908569336,-4.261809349060059,2.133298873901367,,157.1613550660511,37.971797876197684
1557947801555,,14.343262581451622,0.0,,,,,,,
1557947801558,,,,,,,,1003.84228515625,,
1557947801559,0.0,,,,,,,,,
1557947801595,,17.886108221487746,,,,,,,,
1557947801603,,,,1.1321829789587605,-9.01205062866211,-3.4309957027435303,2.176395893096924,,157.4668147861124,37.754544860072784
1557947801635,,17.504856547681488,0.0,,,,,,,
1557947801651,,,,1.2961181362403373,-10.194822311401367,-2.382303476333618,3.0239691734313965,,160.91073276941623,36.995678926815025
1557947801655,,,,,,,,1003.83544921875,,
1557947801675,,19.481905537177294,,,,,,,,
1557947801685,0.0,,,,,,,,,
1557947801715,,19.455556670922824,,,,,,,,
1557947801717,,,,5.14028345150265,-13.376812934875488,-4.783761024475098,4.371945858001709,,,36.81619796673097
1557947801718,,,,,,,,,172.22827426185734,
1557947801754,,,,,,,,1003.837890625,,
1557947801755,,27.493664219876912,0.0,,,,,,,
1557947801779,,,,4.394389537645626,,,,,,
1557947801780,,,,,-10.096656799316406,-5.959350109100342,5.789356708526611,,193.85930942083496,38.22225876240454
1557947801795,,29.208155041175623,,,,,,,,
1557947801808,0.0,,,,,,,,,
1557947801835,,20.435003946856845,0.0,,,,,,,
1557947801840,,,,4.378743776953498,,,,,,
1557947801841,,,,,-6.419050693511963,-0.37590113282203674,6.814105987548828,,236.76027401281863,37.794236028110824
1557947801876,,20.274073970484817,,,,,,1003.827880859375,,
1557947801910,,,,1.637436884471784,-7.55154275894165,-2.485257148742676,5.415849685668945,,,
1557947801911,,,,,,,,,,37.38625913602856
1557947801916,,19.505558095761753,0.0,,,,,,,
1557947801947,,,,1.428597289941218,-7.582668304443359,-0.6201171875,3.7925312519073486,,192.76649281401126,37.19390147161628
1557947801958,,22.209274824789457,,,,,,,,
1557947801972,,,,,,,,1003.834716796875,,
1557947801996,,15.309064900730888,,,,,,,,
1557947802007,,,,1.8763354314152045,-7.465348720550537,0.28013014793395996,3.6129605770111084,,193.05658460844006,37.67722906602865
1557947802031,0.0,,,,,,,,,
1557947802036,,17.8695734346135,0.0,,,,,,,
1557947802061,,,,,,,,1003.83203125,,
1557947802075,,20.10445151122333,,,,,,,,
1557947802088,,,,1.4548254420911007,-7.802941799163818,0.23942747712135315,3.593806505203247,,197.7482688700785,37.50422383112359
1557947802089,,,,,,,,,199.65569481845296,
1557947802116,,19.905623396409776,0.0,,,,,,,
1557947802141,,,,1.1158062058432965,-8.293767929077148,-0.6560313105583191,3.076643228530884,,190.07714680945378,37.75792929214803
1557947802142,0.0,,,,,,,,,
1557947802155,,26.049279480067312,,,,,,,,
1557947802166,,,,,,,,1003.832275390625,,
1557947802189,,,,0.5179539881195037,-8.475732803344727,-0.25618740916252136,3.9529476165771484,,,37.84839668416674
1557947802190,,,,,,,,,203.10981710437682,
1557947802196,,18.316826374701442,0.0,,,,,,,
1557947802236,,19.494978780644942,,,,,,,,
1557947802247,,,,1.1328893701188496,-9.876383781433105,-0.016759924590587616,3.538738250732422,,195.04687441182512,36.60614616740141
1557947802264,0.0,,,,,,,1003.83056640625,,
1557947802275,,17.23829695700595,,,,,,,,
1557947802314,,,,2.7378900223985907,-11.535615921020508,0.73504239320755,3.7709827423095703,,198.04989002382626,37.41503915126314
1557947802315,,28.039229399792795,0.0,,,,,,,
1557947802355,,26.913882546242384,,,,,,,,
1557947802363,,,,,,,,1003.8330078125,,
1557947802364,0.0,,,,,,,,,
1557947802366,,,,6.309668784176838,,,,,,
1557947802367,,,,,-14.279455184936523,-0.04788549616932869,7.027196407318115,,210.38338117417175,37.686159608999525
1557947802395,,25.655038071225423,0.0,,,,,,,
1557947802435,,22.67707711420247,,,,,,,,
1557947802438,,,,3.032709144116464,-9.13176441192627,-3.1795969009399414,4.680807113647461,,205.39118224943104,37.26328433397399
1557947802460,,,,,,,,1003.828125,,
1557947802475,,23.768272214135443,0.0,,,,,,,
1557947802480,0.0,,,,,,,,,
1557947802506,,,,3.634571592962185,-7.07268762588501,-3.9529476165771484,3.993650436401367,,209.2010754288425,37.171778782708245
1557947802516,,22.7466958853204,,,,,,,,
1557947802547,,,,0.6439404641021839,-9.09106159210205,-1.1731946468353271,2.669616460800171,,202.32556112349755,38.14272931237665
1557947802555,,22.147042129328057,,,,,,,,
1557947802577,,,,,,,,1003.823974609375,,
1557947802595,,20.90149239881558,0.0,,,,,,,
1557947802611,0.0,,,1.8297050364474055,-8.7031888961792,-1.5490957498550415,1.3599480390548706,,194.10900747651226,36.90214579894105
1557947802635,,26.941239745824113,,,,,,,,
1557947802675,,22.649529436574998,0.0,,,,,,,
1557947802678,,,,2.499432976315725,-6.8619914054870605,-1.5395187139511108,2.1165390014648438,1003.810546875,206.27134774663557,37.26304164910748
1557947802711,0.0,,,,,,,,,
1557947802715,,26.41516827809872,,,,,,,,
1557947802745,,,,3.106816605099923,-5.95216703414917,-1.9561225175857544,2.5546913146972656,,214.40442282158494,37.65983308530515
1557947802756,,23.862258873320794,0.0,,,,,,,
1557947802780,,,,,,,,1003.812255859375,,
1557947802795,,19.695300152092777,,,,,,,,
1557947802811,,,,2.430358401582788,-6.706363677978516,-3.505218267440796,2.5858168601989746,,205.80065209017334,36.94236568324024
1557947802812,0.0,,,,,,,,,
1557947802836,,18.497194844603957,,,,,,,,
1557947802847,,,,1.2957337194999057,-8.502069473266602,-3.074248790740967,2.7414445877075195,,204.3743310065562,37.369643569544984
1557947802870,,,,,,,,1003.80859375,,
1557947802876,,15.403237987033865,0.0,,,,,,,
1557947802908,,,,1.3576973395463208,-9.265843391418457,-3.5531039237976074,3.217905282974243,,205.40433719377256,37.43740326425731
1557947802916,,15.250227588336724,,,,,,,,
1557947802928,0.0,,,,,,,,,
1557947802955,,23.571956221719297,0.0,,,,,,,
1557947802960,,,,,,,,1003.80419921875,,
1557947802966,,,,,-11.119011878967285,-2.1931557655334473,,,,
1557947802967,,,,,,,2.628913640975952,,194.65311400617384,37.26796837278811
1557947802989,,,,3.176125070276064,,,,,,
1557947802995,,27.660269363250446,,,,,,,,
1557947803035,,28.234527879146306,0.0,,,,,,,
1557947803049,,,,7.481665771964735,-13.920313835144043,-7.031985282897949,6.7398834228515625,,,36.32245596464561
1557947803050,0.0,,,,,,,,210.29973867759577,
1557947803054,,,,,,,,1003.806884765625,,
1557947803075,,30.725787328919264,,,,,,,,
1557947803087,,,,3.1503497580463127,-7.146910190582275,-2.8108785152435303,6.725517749786377,,,
1557947803088,,,,,,,,,235.29553994530943,36.56009257301739
1557947803116,,27.8686726489949,,,,,,,,
1557947803150,0.0,,,3.303683225293911,-7.127756118774414,0.2968900799751282,6.045543670654297,,245.46869690269318,36.60673727677811
1557947803154,,,,,,,,1003.80224609375,,
1557947803156,,28.912127585942446,0.0,,,,,,,
1557947803196,,22.329543553914494,,,,,,,,
1557947803210,,,,1.245531391735946,-8.317710876464844,-0.3543526828289032,3.474092721939087,,219.67415965305986,36.16586624601671
1557947803236,,25.040314125335506,0.0,,,,,,,
1557947803265,0.0,,,,,,,1003.801513671875,,
1557947803267,,,,1.9918468109233263,-7.606611251831055,-0.8739103078842163,2.3368122577667236,,204.13136751740058,36.19531888967156
1557947803276,,22.57444555067385,,,,,,,,
1557947803316,,19.813727048051582,0.0,,,,,,,
1557947803326,,,,2.2462429892675226,,,,,,
1557947803327,,,,,-7.19240140914917,0.13407939672470093,2.719896078109741,,219.39197721769,36.05121139734347
1557947803362,,18.73742922133974,,,,,,,,
1557947803370,0.0,,,,,,,1003.7900390625,,
1557947803396,,20.654247279725606,,1.4817349698286089,-7.850827217102051,-0.17238777875900269,2.8922839164733887,,,35.36932503192936
1557947803397,,,,,,,,,216.42939632557528,
1557947803436,,19.097960975555843,0.0,,,,,,,
1557947803446,,,,0.9826462415518207,-8.559532165527344,-0.10295381397008896,2.885101079940796,,213.9576328272177,36.56600114537604
1557947803467,,,,,,,,1003.79052734375,,
1557947803475,,18.903899656042398,,,,,,,,
1557947803491,0.0,,,,,,,,,
1557947803516,,19.29163962836663,0.0,,,,,,,
1557947803517,,,,1.2412785497418846,-9.550762176513672,0.16759923100471497,2.727078914642334,,212.68277801863485,36.07152950646936
1557947803556,,17.806022048832308,,,,,,,,
1557947803570,,,,1.759639892150899,-10.314536094665527,0.6560313105583191,2.5906052589416504,1003.783935546875,209.83327773841887,35.93138339615389
1557947803596,,19.00159590875292,0.0,,,,,,,
1557947803599,0.0,,,,,,,,,
1557947803628,,,,3.1878235596636126,-12.325726509094238,,,,,
1557947803629,,,,,,-1.0654523372650146,2.267378330230713,,198.26620211484055,35.69515856945289
1557947803635,,24.792113679524878,,,,,,,,
1557947803654,,,,,,,,1003.77099609375,,
1557947803675,,26.265870780029218,,,,,,,,
1557947803706,0.0,,,7.9132141080303935,-14.12143325805664,2.827638626098633,8.16208267211914,,236.6577255526201,35.6367153128756
1557947803716,,28.183710442640052,0.0,,,,,,,
1557947803755,,23.839120034723965,,,,,,,,
1557947803762,,,,3.978756522300041,-9.572310447692871,-4.27138614654541,3.6369035243988037,1003.775390625,208.18985226184378,34.922782344481
1557947803795,,26.03058409459651,0.0,,,,,,,
1557947803826,,,,4.165247306671288,-6.1868062019348145,,,,,
1557947803827,0.0,,,,,-3.3088877201080322,4.278569221496582,,219.7932918125632,34.627849105742506
1557947803836,,16.325800872212717,,,,,,,,
1557947803857,,,,,,,,1003.769287109375,,
1557947803867,,,,0.7541275095038737,-9.337671279907227,-0.6249057054519653,2.535537004470825,,210.35192132285465,34.17499077970524
1557947803876,,29.2744922094288,0.0,,,,,,,
1557947803916,,29.812866052551218,,,,,,,,
1557947803940,0.0,,,1.1775745897095133,-8.930644989013672,-1.0439038276672363,1.872322916984558,,204.72032106915242,34.95951186504672
1557947803956,,26.265073778657026,0.0,,,,,,,
1557947803966,,,,,,,,1003.763916015625,,
1557947803991,,,,2.6455820720243954,-7.1133904457092285,-2.133298873901367,1.6975408792495728,,204.26313552686838,34.68876814988807
1557947803996,,21.076675042356175,,,,,,,,
1557947804036,,33.65461984682439,,,,,,,,
1557947804056,,,,2.9402311898502242,-6.002447128295898,-1.831620216369629,3.16044282913208,1003.760986328125,222.07509408972442,34.38518112870869
1557947804057,0.0,,,,,,,,,
1557947804075,,25.8695644577507,,,,,,,,
1557947804076,,,0.0,,,,,,,
1557947804116,,25.645405988438696,,,,,,,,
1557947804119,,,,2.017369897516507,-6.720729351043701,-3.258608102798462,3.3998701572418213,,215.57391513203117,33.821748766158414
1557947804156,,22.03601116844205,0.0,,,,,,,
1557947804171,0.0,,,1.7686064537219615,-8.80135440826416,-3.663240432739258,3.311282157897949,1003.760986328125,208.7699265676746,33.76758141565792
1557947804196,,17.282847488660064,,,,,,,,
1557947804231,,,,2.0528310068834856,-9.560338973999023,,,,,
1557947804232,,,,,,-3.6776061058044434,3.0814316272735596,,196.87504284507065,32.819724120840895
1557947804235,,17.6042077370675,0.0,,,,,,,
1557947804262,,,,,,,,1003.76318359375,,
1557947804276,,21.565189334264797,,,,,,,,
1557947804293,0.0,,,2.6282425789493806,-10.740716934204102,-2.449343204498291,4.6640472412109375,,209.44484488032026,33.1416226058052
1557947804315,,30.68959750764982,,,,,,,,
1557947804346,,,,6.727917755095995,-12.210801124572754,-7.058321952819824,7.659285068511963,,210.27994478938103,32.96010221659913
1557947804355,,33.13187850179056,0.0,,,,,,,
1557947804368,,,,,,,,1003.765625,,
1557947804395,,27.997588856727063,,,,,,,,
1557947804404,0.0,,,,,,,,,
1557947804406,,,,,-5.0016398429870605,-0.3830839693546295,7.204372882843018,,,31.899805247486636
1557947804407,,,,4.795969526587004,,,,,248.13253215070074,
1557947804437,,26.702926703861245,0.0,,,,,,,
1557947804467,,,,1.3844443138112972,-7.601822376251221,-0.9553156495094299,5.487678050994873,1003.765625,225.12885800725883,33.12929166436719
1557947804476,,25.12038627776174,,,,,,,,
1557947804508,0.0,,,,,,,,,
1557947804516,,23.667669696415025,0.0,,,,,,,
1557947804529,,,,1.3760753241481705,-8.427846908569336,-0.2897072434425354,3.4645156860351562,,202.7291160204186,32.018249600165504
1557947804556,,25.708042818809034,,,,,,,,
1557947804561,,,,,,,,1003.76708984375,,
1557947804593,,,,1.928434575235822,,,,,,
1557947804594,,,,,-7.304932594299316,-0.0023942748084664345,3.438178539276123,,209.8205189450493,32.13076932842672
1557947804596,,22.385680720929855,,,,,,,,
1557947804614,0.0,,,,,,,,,
1557947804636,,20.67598375393882,0.0,,,,,,,
1557947804646,,,,2.3576142265017443,-7.020013809204102,0.4597007632255554,3.3352248668670654,,,
1557947804647,,,,,,,,,214.92873546303179,31.883662291460134
1557947804655,,,,,,,,1003.76220703125,,
1557947804676,,19.942952012695322,,,,,,,,
1557947804707,,,,1.3231374100872102,-8.126168251037598,-0.30407288670539856,2.978477954864502,,203.28749764544546,31.621821067024428
1557947804716,,15.038169228767567,0.0,,,,,,,
1557947804727,0.0,,,,,,,,,
1557947804755,,17.83088090834656,,,,,,,,
1557947804763,,,,,,,,1003.76220703125,,
1557947804766,,,,,,,,,202.89252146612193,32.15182750396367
1557947804767,,,,1.3575689222427056,-8.73192024230957,0.1771763414144516,3.4573328495025635,,207.21664592776528,
1557947804796,,17.617096976117974,0.0,,,,,,,
1557947804826,,,,2.219603038729253,-10.963384628295898,-0.2011190801858902,3.1436827182769775,,196.9873311550257,32.358806990351034
1557947804828,0.0,,,,,,,,,
1557947804835,,16.405839607052425,,,,,,,,
1557947804854,,,,,,,,1003.758056640625,,
1557947804875,,23.16210530885435,,,,,,,,
1557947804891,,,,3.557389592637578,-12.636981964111328,-0.4477293789386749,2.9258038997650146,,189.44734872646518,31.380859627263966
1557947804915,,23.294255542097495,0.0,,,,,,,
1557947804937,0.0,,,,,,,,,
1557947804945,,,,6.876714041924696,,,,,,
1557947804946,,,,,-13.987353324890137,0.9529213905334473,7.843644142150879,,220.4062329886802,31.064009898573957
1557947804953,,,,,,,,1003.752685546875,,
1557947804955,,26.248881052223222,,,,,,,,
1557947804995,,25.405699308473615,0.0,,,,,,,
1557947805005,,,,3.0664717163095228,-8.059128761291504,-3.3639562129974365,,,,
1557947805006,,,,,,,3.5794408321380615,,203.23825198152963,31.50748378308305
1557947805035,,19.403080695303075,,,,,,,,
1557947805038,0.0,,,,,,,,,
1557947805054,,,,,,,,1003.752685546875,,
1557947805065,,,,2.9447080766067635,-7.577879905700684,,,,,
1557947805066,,,,,,-3.4238128662109375,3.6440863609313965,,207.24346125044679,31.536607106472466
1557947805075,,24.105850124528093,0.0,,,,,,,
1557947805115,,21.047313058084814,,,,,,,,
1557947805126,,,,1.1992314241714974,-9.210775375366211,-0.38068968057632446,2.171607255935669,,,
1557947805152,0.0,,,,,,,,,
1557947805153,,,,,,,,1003.755126953125,,
1557947805155,,26.23058737712318,,,,,,,,
1557947805186,,,,1.5539150139977216,-8.432636260986328,-2.2434353828430176,2.207521438598633,,200.85346411206297,30.34114008065939
1557947805195,,26.40103241870575,0.0,,,,,,,
1557947805235,,18.873627353912696,,,,,,,,
1557947805246,,,,2.5639802332575896,-6.8931169509887695,-1.381496548652649,1.9130256175994873,,206.80780446442668,31.394967164752853
1557947805253,0.0,,,,,,,,,
1557947805254,,,,,,,,1003.74365234375,,
1557947805276,,18.17472426168961,0.0,,,,,,,
1557947805316,,28.103430265640284,,,,,,,,
1557947805317,,,,2.4212721535807002,-6.742278099060059,-2.0207679271698,2.6169424057006836,,213.1920096023943,29.47221632619594
1557947805355,,34.52224326557866,,,,,,,,
1557947805356,,,0.0,,,,,,,
1557947805360,0.0,,,,,,,1003.74365234375,,
1557947805367,,,,2.04344367201801,-7.043956279754639,-2.7175018787384033,2.6241252422332764,,208.76474928428377,29.985415467002635
1557947805396,,29.49973023033296,,,,,,,,
1557947805425,,,,1.0254088191280197,,,,,,
1557947805426,,,,,-8.399115562438965,-2.7031362056732178,2.794118642807007,,205.86015669822245,30.040890606911493
1557947805435,,32.14440134812116,,,,,,,,
1557947805456,,,,,,,,1003.73583984375,,
1557947805461,0.0,,,,,,,,,
1557947805477,,25.11052308625655,0.0,,,,,,,
1557947805486,,,,1.7566596425668228,-9.835680961608887,-2.856369733810425,2.7031362056732178,,197.45697496235584,29.497124414911703
1557947805515,,19.775473430971225,,,,,,,,
1557947805546,,,,3.745039138080129,-11.983345031738281,-0.9624984860420227,2.973689317703247,,193.51091513165102,29.1852358027976
1557947805555,,24.030387716260417,0.0,,,,,,,
1557947805556,,,,,,,,1003.729736328125,,
1557947805573,0.0,,,,,,,,,
1557947805595,,30.087968448003203,,,,,,,,
1557947805609,,,,8.98097294623668,-14.727184295654297,-7.987300872802734,6.94100284576416,,,
1557947805610,,,,,,,,,204.83635232277254,29.16228314994312
1557947805635,,30.78324450676634,0.0,,,,,,,
1557947805653,,,,,,,,1003.729736328125,,
1557947805666,,,,2.94649313983931,-7.280989646911621,-1.209108829498291,6.07188081741333,,233.91712580853078,29.226220729319362
1557947805675,,24.554025521342723,,,,,,,,
1557947805687,0.0,,,,,,,,,
1557947805715,,22.50910739180169,,,,,,,,
1557947805726,,,,2.443095509333315,-7.515628814697266,-0.08619388937950134,5.123748302459717,,232.78756278397242,28.935244193779507
1557947805755,,24.268983676224032,0.0,,,,,,,
1557947805756,,,,,,,,1003.7294921875,,
1557947805787,0.0,,,1.0840175864140902,-8.705583572387695,0.031125571578741074,3.3017048835754395,,214.46062161807583,28.63590715408154
1557947805796,,33.86312077225222,,,,,,,,
1557947805838,,24.748016240044805,0.0,,,,,,,
1557947805846,,,,2.3095965329510544,-7.3336639404296875,0.15562786161899567,2.2242813110351562,,206.42427568215214,27.997892573067357
1557947805857,,,,,,,,1003.71533203125,,
1557947805875,,23.947742004472822,,,,,,,,
1557947805890,0.0,,,,,,,,,
1557947805908,,,,2.3120117703108494,-7.110996246337891,-0.06464541703462601,2.4732859134674072,,212.4930353634919,27.39872227438372
1557947805915,,19.696462002723152,,,,,,,,
1557947805916,,,0.0,,,,,,,
1557947805955,,22.64886057502053,,,,,,1003.71533203125,,
1557947805966,,,,2.013828393604867,-7.527599811553955,0.4980091452598572,2.853975534439087,,219.6677665959968,27.69726214234407
1557947805991,0.0,,,,,,,,,
1557947805996,,20.578389691044304,,,,,,,,
1557947806026,,,,1.0715306165328915,-8.549955368041992,0.06464541703462601,2.5834224224090576,,,27.42341279091265
1557947806027,,,,,,,,,211.52060767097885,
1557947806039,,17.669538099078334,0.0,,,,,,,
1557947806057,,,,,,,,1003.705810546875,,
1557947806075,,19.685703005925724,,,,,,,,
1557947806092,,,,1.3395943367814156,,,,,,
1557947806093,0.0,,,,-9.265843391418457,0.79011070728302,2.545114040374756,,212.2073148901319,27.21514163096237
1557947806116,,16.197060276505777,0.0,,,,,,,
1557947806146,,,,2.1157160639357544,-10.877190589904785,0.3184385597705841,1.9465453624725342,,197.95291499799043,27.93997077063747
1557947806155,,17.591794545250444,,,,,,,,
1557947806170,,,,,,,,1003.688232421875,,
1557947806196,0.0,25.787015671635636,0.0,,,,,,,
1557947806220,,,,3.9382367126089584,,,,,,
1557947806221,,,,,-13.254705429077148,0.011971374042332172,3.4573328495025635,,208.68879758071319,26.564826273132006
1557947806235,,23.250309074187303,,,,,,,,
1557947806264,,,,,,,,1003.688232421875,,
1557947806266,,,,3.907107449837124,-14.418322563171387,1.4652961492538452,5.339232921600342,,220.76080176887388,26.786757106859362
1557947806275,,26.743168725059693,,,,,,,,
1557947806305,0.0,,,,,,,,,
1557947806315,,27.43983239029699,0.0,,,,,,,
1557947806325,,,,2.9885089463394743,,,,,,
1557947806326,,,,,-8.277008056640625,-2.9569294452667236,3.526766777038574,,216.22241427296723,26.41206558045041
1557947806355,,24.522663881526007,,,,,,,,
1557947806360,,,,,,,,1003.688720703125,,
1557947806395,,17.43627071001803,0.0,,,,,,,
1557947806406,,,,1.929979186464654,,,,,,
1557947806407,0.0,,,,-7.805335998535156,-1.1995316743850708,3.442967176437378,,228.31005959432724,25.789253642955497
1557947806438,,28.141188132165542,,,,,,,,
