timestamp,AmbientLightSensor,DecibelSource,PitchSensor,LinearAccelerometerSensor,AccX,AccY,AccZ,BarometerSensor,CompassSensor,MagneticRotationSensor
1556798721695,,,,1.9290067267253654,,,,,,
1556798721696,,,,,,,,,137.1661538557572,35.843960285855715
1556798721705,,36.161718122951385,,,,,,,,
1556798721712,,,114.8388671875,,,,,,,
1556798721739,,35.89068658913685,114.8388671875,,,,,,,
1556798721776,,,,3.855413341800437,-0.10295381397008896,3.5195839405059814,9.220352172851562,1012.52685546875,134.49610996579415,
1556798721777,27159.0,,,,,,,,,35.57559738028632
1556798721779,,35.38950633190616,114.8388671875,,,,,,,
1556798721784,,,71.9169921875,,,,,,,
1556798721794,29283.0,,,,-0.4597007632255554,4.300117492675781,5.308107376098633,,124.25492432427703,
1556798721802,,,,2.406979239798618,,,,,128.3627093741494,
1556798721803,,,,,,,,,,35.209009173210625
1556798721818,,35.33382633490713,71.9169921875,,,,,,,
1556798721819,,,,,,,,1012.534423828125,,
1556798721844,,,,,0.742225170135498,4.529967784881592,6.668055534362793,,129.24389939972943,
1556798721858,,35.941530514292445,71.9169921875,,,,,,,
1556798721861,,,,2.0242350416805075,,,,,124.42099354375671,35.11661003876842
1556798721891,29283.0,,,,,,,,,
1556798721898,,35.7526268026105,71.9169921875,,,,,,,
1556798721899,,,,,-0.7254652380943298,,,,,
1556798721900,,,,,,4.776578426361084,6.718335151672363,,126.1166972882391,
1556798721921,,,,0.6313251866046967,,,,1012.539306640625,133.77335300820172,35.19755609481442
1556798721938,,34.58986668780879,,,,,,,,
1556798721959,27450.0,,,,0.3663240373134613,4.2594146728515625,,,,
1556798721960,,,,,0.6632141470909119,3.718308687210083,11.001692771911621,,136.61952015610274,
1556798721978,,35.58367567130293,,,,,,,,
1556798721980,,,67.12002999441964,,,,,,,
1556798721981,,,,3.384168533691653,,,,,141.1546701423428,34.89679585143044
1556798722009,27450.0,,,,,,,,,
1556798722018,,35.52977061483245,67.12002999441964,,,,,,,
1556798722019,,,,,0.07422251999378204,3.847599506378174,12.237138748168945,1012.53173828125,138.93147088826035,
1556798722020,,,,,0.4716721475124359,4.084632873535156,11.23393726348877,,138.08072984600022,
1556798722042,,,,1.8817360361026358,,,,,,
1556798722043,,,,,,,,,141.7846867913848,34.06990877280918
1556798722058,,36.13233986817352,67.12002999441964,,,,,,,
1556798722080,,,,,0.6129343509674072,3.9433705806732178,8.107014656066895,,134.93217656316443,
1556798722081,,,,,1.6017698049545288,,,,146.39744138697458,
1556798722098,,37.11583297834673,,,,,,,,
1556798722101,,,,2.988930306350535,,,,,145.56553800644534,34.570726598155495
1556798722109,27450.0,,,,,,,,,
1556798722119,,,,,,,,1012.5302734375,,
1556798722138,,36.63251179724908,,,,,,,,
1556798722143,32621.0,,,,0.9720755815505981,2.4613144397735596,12.787821769714355,,143.10546779194684,
1556798722162,,,,2.1336516242207955,,,,,144.54592736714585,33.76278318146435
1556798722178,,37.25239480556957,,,,,,,,
1556798722183,,,115.19022623697917,,,,,,,
1556798722200,,,,,0.5099805593490601,2.7749645709991455,8.7031888961792,,,
1556798722201,,,,,,,,,138.32788707130632,
1556798722202,,,,,-0.8308133482933044,2.6600394248962402,8.909096717834473,,135.83070160885796,
1556798722210,32621.0,,,,,,,,,
1556798722219,,36.72558842857085,115.19022623697917,,,,,,,
1556798722223,,,,1.3659344407682037,,,,,,
1556798722226,,,,,,,,1012.54931640625,137.33682662273748,
1556798722227,,,,,,,,,,34.93896346504109
1556798722259,,37.38311764299907,115.19022623697917,,,,,,,
1556798722261,,,,,0.8044763207435608,3.186779737472534,8.918673515319824,,139.521339685361,
1556798722264,,,114.67976888020833,,,,,,,
1556798722283,,,,1.4790480749739363,,,,,140.1593886368669,34.474373347948834
1556798722299,,38.12864871733754,114.67976888020833,,,,,,,
1556798722321,38495.0,,,,,,,,,
1556798722322,,,,,1.0367209911346436,3.1412885189056396,9.153312683105469,1012.55419921875,140.82111102403607,
1556798722325,38495.0,,,,,,,,,
1556798722339,,38.35771288406876,114.67976888020833,,,,,,,
1556798722344,,,,0.3419603229451035,,,,,138.4825908560071,33.67817501388145
1556798722346,,,78.92846873449902,,,,,,,
1556798722381,,38.10823944734098,78.92846873449902,,-0.2011190801858902,3.7566170692443848,8.18363094329834,,,
1556798722382,,,,,0.26337021589279175,3.9792847633361816,7.728719234466553,,136.1324866871458,
1556798722403,,,,1.3480649466617292,,,,,138.74720604483173,33.83436038267731
1556798722419,,37.379701776037635,78.92846873449902,,,,,,,
1556798722420,,,,,,,,1012.56005859375,,
1556798722426,38495.0,,,,,,,,,
1556798722442,,,,,0.6105400919914246,,,,,
1556798722443,,,,,,4.065478801727295,7.834067344665527,,139.52524655356623,
1556798722464,,37.95616288035519,78.92846873449902,1.18475818323552,,,,,141.681728519836,34.02613613678713
1556798722469,,,114.62565104166666,,,,,,,
1556798722499,,39.35036948843154,114.62565104166666,,,,,,,
1556798722501,25426.0,,,,,,,,,
1556798722502,,,,,1.1253091096878052,,,,,
1556798722503,,,,,0.11492519080638885,4.6640472412109375,7.537177085876465,,139.4139691116084,
1556798722523,,,,0.5838933254952152,,,,1012.550048828125,147.66789755373196,33.634481869502366
1556798722526,25426.0,,,,,,,,,
1556798722539,,37.99559064193896,114.62565104166666,,,,,,,
1556798722544,,,114.81255425347223,,,,,,,
1556798722561,,,,,-0.19633053243160248,4.328848838806152,10.398335456848145,,147.00602490240104,
1556798722562,,,,,,,9.885960578918457,,144.01624619701136,
1556798722579,,37.67868079574103,114.81255425347223,,,,,,,
1556798722582,,,,1.891202412855639,,,,,141.4479038237898,33.87960314992274
1556798722619,,38.69228592331004,114.81255425347223,,,,,,,
1556798722623,,,,,-0.8068706393241882,4.7861552238464355,10.058348655700684,1012.546630859375,144.84478912446892,
1556798722626,,,114.593994140625,,-0.4549122154712677,3.876330852508545,12.45501708984375,,148.91708451141392,
1556798722628,25426.0,,,,,,,,,
1556798722643,,,,5.366580312440869,,,,,151.0871722145104,34.628368855218405
1556798722658,,38.22506581841558,114.593994140625,,,,,,,
1556798722681,19643.0,,,,,,,,,
1556798722682,,,,,1.30009126663208,3.4884583950042725,11.442239761352539,,150.96358677166816,
1556798722698,,37.645119937752455,114.593994140625,,,,,,,
1556798722702,,,,2.733438822021025,,,,,,
1556798722703,,,,,,,,,139.52643500648182,35.16153483995446
1556798722705,,,114.7271728515625,,,,,,,
1556798722720,,,,,,,,1012.54345703125,,
1556798722739,,38.93692110229051,114.7271728515625,,,,,,,
1556798722742,,,,,-0.06703969836235046,,,,,
1556798722743,19643.0,,,,,3.9218220710754395,7.168458938598633,,140.5389012679095,
1556798722763,,,,1.9375465141373511,,,,,140.00319587092704,34.29764868808521
1556798722778,,37.7082421951141,,,,,,,,
1556798722779,,,114.7271728515625,,,,,,,
1556798722802,,,,,-0.2370332032442093,,,,,
1556798722803,,,,,0.07182824611663818,3.7925312519073486,9.500482559204102,,143.40286788878754,
1556798722804,,,,,,,,,143.8475268641337,
1556798722819,,37.69604958323753,114.7271728515625,,,,,,,
1556798722823,,,,,,,,,141.50030503510214,35.08496986625981
1556798722825,,,114.7744411892361,,,,,,,
1556798722826,,,,1.2348239902989504,,,,1012.535888671875,,
1556798722843,19643.0,,,,,,,,,
1556798722859,,38.201468155832956,114.7744411892361,,,,,,,
1556798722862,19019.0,,,,0.5482889413833618,3.725491523742676,6.517216205596924,,,
1556798722863,,,,,,,,,137.66496257084322,
1556798722883,,,,2.736275671729144,,,,,128.8062755192284,36.046269238398054
1556798722900,,38.05455661587837,114.7744411892361,,,,,,,
1556798722904,,,114.9951171875,,,,,,,
1556798722921,,,,,1.022355318069458,,,,,
1556798722922,,,,,,3.8571767807006836,7.776604652404785,1012.543212890625,132.23470263349463,
1556798722923,,,,,1.0558751821517944,4.2594146728515625,7.340846538543701,,129.49953971998468,
1556798722939,,37.426771800166044,114.9951171875,,,,,,,
1556798722943,19019.0,,,,,,,,124.80493213738146,37.02199241266015
1556798722944,,,,1.4387008792502507,,,,,,
1556798722979,,37.895474580817975,114.9951171875,,,,,,,
1556798722982,,,115.07568359375,,,,,,,
1556798722983,,,,,1.0271438360214233,4.474899768829346,5.743865489959717,,116.96197617761757,
1556798723004,,,,3.8626865280197302,,,,,110.76397565680287,36.99597076447779
1556798723019,,37.36188199863755,115.07568359375,,,,,,,
1556798723022,,,,,,,,1012.539306640625,,
1556798723043,18815.0,,,,1.0175668001174927,4.405465602874756,10.144542694091797,,130.08703161125416,
1556798723044,,,,,1.4605076313018799,4.187586784362793,10.23073673248291,,131.3517777398654,
1556798723059,,35.43878078108899,115.07568359375,,,,,,,
1556798723060,18815.0,,,,,,,,,
1556798723064,,,,0.8446205734175324,,,,,131.0273710750465,36.359504030326114
1556798723099,,35.99696403461113,115.07568359375,,,,,,,
1556798723102,,,,,1.398256540298462,4.0415358543396,9.749486923217773,,129.7031613195211,
1556798723105,,,113.33455403645834,,,,,,,
1556798723126,,,,2.0425195145345953,,,,1012.537109375,130.64538591552434,37.166307288387344
1556798723139,,35.4747909663775,113.33455403645834,,,,,,,
1556798723161,,,,,2.5020172595977783,,,,,
1556798723162,,,,,3.3352248668670654,3.4908525943756104,11.729552268981934,,132.56781095931615,
1556798723176,18815.0,,,,,,,,,
1556798723178,,36.04947391539693,113.33455403645834,,,,,,,
1556798723183,,,,2.2910313390272576,,,,,130.704549014115,37.45422712415482
1556798723185,,,113.87369791666667,,,,,,,
1556798723218,,35.85267308566213,113.87369791666667,,,,,,,
1556798723222,23965.0,,,,4.496448040008545,2.5929996967315674,10.759870529174805,1012.531494140625,140.92595442779577,
1556798723223,,,,,4.429408550262451,2.6169424057006836,11.753495216369629,,140.21795067881058,
1556798723243,,,,2.346586418441449,,,,,137.2816796753788,36.22434963285392
1556798723258,,35.06394497371866,113.87369791666667,,,,,,,
1556798723264,,,114.12516276041666,,,,,,,
1556798723276,23965.0,,,,,,,,,
1556798723282,,,,,2.348783493041992,3.4214186668395996,8.480521202087402,,131.45485895481926,
1556798723299,,36.0771457886909,114.12516276041666,,,,,,,
1556798723303,,,,2.6503699350357683,,,,,,
1556798723304,,,,,,,,,134.67030711038615,35.82602915254737
1556798723321,,,,,,,,1012.53466796875,,
1556798723339,,35.368557831267594,114.12516276041666,,,,,,,
1556798723343,,,,,3.562680959701538,2.389486312866211,7.728719234466553,,140.95673126019585,
1556798723364,,,,1.0143375158993622,,,,,133.5110874044516,36.88736205509758
1556798723376,23965.0,,,,,,,,,
1556798723379,,34.386427898219495,114.12516276041666,,,,,,,
1556798723385,,,114.2138671875,,,,,,,
1556798723403,16986.0,,,,3.280156373977661,3.227482557296753,8.59305191040039,,,
1556798723404,,,,,3.004814863204956,4.130124092102051,6.1556806564331055,,133.9218413207578,
1556798723420,,35.350851238812616,114.2138671875,,,,,,,
1556798723429,,,,2.549968502373734,,,,1012.54443359375,,
1556798723430,,,,,,,,,122.6077695644151,37.217657228354135
1556798723459,,35.220190554638116,114.2138671875,,,,,,,
1556798723464,,,,,2.202732801437378,3.9768905639648438,7.1445159912109375,,124.49291543571695,
1556798723465,,,,,,,,,124.06290038595131,
1556798723477,16986.0,,,,,,,,,
1556798723484,,,,1.552672033437973,,,,,122.26608252099604,37.26618203212323
1556798723499,,34.52321652980929,,,,,,,,
1556798723522,,,,,2.8396098613739014,4.297723293304443,7.767027378082275,1012.538330078125,125.40515550126383,
1556798723523,,,,,3.316070556640625,4.649681568145752,7.609005451202393,,124.12060182405958,
1556798723539,,34.6681157082497,,,,,,,,
1556798723544,,,,0.9182864025075915,,,,,121.81317267713248,37.61081262249691
1556798723545,,,114.035400390625,,,,,,,
1556798723578,16986.0,,,,,,,,,
1556798723580,,35.36537758526591,114.035400390625,,,,,,,
1556798723582,14043.0,,,,2.6456737518310547,5.576265811920166,7.087053298950195,,115.63929638446626,
1556798723583,,,,,3.007209062576294,5.660065650939941,8.023215293884277,,118.9683715670655,
1556798723603,,,,0.7966757880637055,,,,,119.49389998218462,38.9342200996079
1556798723619,,35.35045194244186,114.035400390625,,,,,,,
1556798723621,,,,,,,,1012.540283203125,,
1556798723643,,,,,4.738269805908203,5.238673210144043,7.659285068511963,,,
1556798723644,,,,,,,8.224333763122559,,122.22288840468485,
1556798723659,,35.20796311504072,114.035400390625,,,,,,,
1556798723663,,,,1.8969559402416651,,,,,122.4628602709841,38.67180277008526
1556798723664,,,76.06516520182291,,,,,,,
1556798723693,14043.0,,,,,,,,,
1556798723698,,35.97165473663748,76.06516520182291,,,,,,,
1556798723701,,,,,2.758204460144043,5.801327705383301,7.62097692489624,,,
1556798723702,,,,,3.4621214866638184,6.663266658782959,7.077476501464844,,118.36346269341249,
1556798723724,,,,2.5392619362779953,,,,,,
1556798723725,,,,,,,,1012.536376953125,,
1556798723726,,,,,,,,,116.38246194729868,40.119185641004556
1556798723738,,35.576187612741194,76.06516520182291,,,,,,,
1556798723761,7679.0,,,,,,,,,
1556798723762,,,,,3.5483152866363525,6.529187202453613,10.077502250671387,,122.25396576540842,
1556798723763,,,,,5.791750907897949,5.375146865844727,10.738322257995605,,126.40749942234157,
1556798723778,,35.65119115196458,,,,,,,,
1556798723784,,,,4.14045686200485,,,,,123.44545128498214,40.2793532850956
1556798723810,7679.0,,,,,,,,,
1556798723818,,35.081264530233334,,,,,,,,
1556798723822,,,,,5.358386993408203,5.097411155700684,9.256266593933105,,,
1556798723823,,,,,4.467716693878174,5.808510780334473,6.933819770812988,1012.5361328125,122.28658674888442,
1556798723824,,,68.82147216796875,,,,,,,
1556798723844,,,,0.7700798673823869,,,,,107.35437254388916,40.622878293566124
1556798723858,,34.79140307307512,,,,,,,,
1556798723859,,,68.82147216796875,,,,,,,
1556798723883,,,,,5.0016398429870605,5.715134143829346,6.584255695343018,,111.11351741776744,
1556798723899,,33.99165725531017,68.82147216796875,,,,,,,
1556798723904,,,,2.0627388093427745,,,,,,
1556798723905,,,,,,,,,115.6693082356793,41.735766351865756
1556798723922,,,,,,,,1012.534423828125,,
1556798723926,7679.0,,,,,,,,,
1556798723939,,34.507407035310386,,,,,,,,
1556798723944,6161.0,,,,5.367964267730713,4.690384387969971,7.127756118774414,,114.24166209536324,
1556798723964,,,,1.4004067562349984,,,,,,
1556798723965,,,,,,,,,110.55264277369349,43.0253127227182
1556798723979,,33.63787693965377,,,,,,,,
1556798724007,,,,,5.047131061553955,4.422225475311279,3.3591675758361816,,99.62993402660334,
1556798724019,,32.767187387410964,,,,,,,,
1556798724025,,,71.98516845703125,,,,,,,
1556798724026,,,,2.840190798032075,,,,,,
1556798724027,,,,,,,,1012.536376953125,104.32103089197315,43.85560805156138
1556798724028,6161.0,,,,,,,,,
1556798724059,,33.1592574195532,71.98516845703125,,,,,,,
1556798724064,,,,,4.90108060836792,4.656864643096924,3.189173936843872,,92.10359831600454,
1556798724085,,,,2.629490054918173,,,,,,
1556798724086,,,,,,,,,89.98102140877472,43.22590909811382
1556798724099,,32.52205279434363,71.98516845703125,,,,,,,
1556798724124,5499.0,,,,4.606584548950195,5.576265811920166,4.941783428192139,1012.5322265625,98.58112432860202,
1556798724126,,,,,4.934600353240967,5.803721904754639,5.731894016265869,,101.46883268703505,
1556798724139,,32.47876027860143,,,,,,,,
1556798724143,5499.0,,,,,,,,,
1556798724145,,,,0.7282950959836275,,,,,,
1556798724146,,,,,,,,,95.41932730896559,43.86184717507763
1556798724179,,33.30535705112708,,,,,,,,
1556798724184,,,,,4.582642078399658,6.495667457580566,3.9577362537384033,,85.08290833985097,
1556798724205,,,,2.3180016721335988,,,,,,
1556798724206,,,,,,,,,91.85994497774266,43.66210909279951
1556798724219,,32.82555709929879,,,,,,,,
1556798724223,,,,,,,,1012.541748046875,,
1556798724225,,,171.5234375,,,,,,,
1556798724243,,,,,4.795732498168945,5.973715782165527,,,,
1556798724244,5499.0,,,,6.70157527923584,5.815693378448486,7.515628814697266,,107.06014848501252,
1556798724259,,33.14534312553847,171.5234375,,,,,,,
1556798724265,,,,2.930692047829561,,,,,,
1556798724266,,,,,,,,,103.1872468105077,43.0725181387987
1556798724299,,33.25867133782922,171.5234375,,,,,,,
1556798724303,5687.0,,,,7.652102470397949,6.756643295288086,,,,
1556798724304,,,,,7.436617374420166,6.608198642730713,5.77259635925293,,94.63631442251528,
1556798724326,,,,1.6152261828361254,,,,1012.546142578125,96.78210031254486,44.06153308312013
1556798724339,,33.06806255377838,,,,,,,,
1556798724344,5687.0,,,,,,,,,
1556798724365,,,,,7.790970325469971,5.066285610198975,8.293767929077148,,108.3074024991594,
1556798724378,,33.69127785104374,,,,,,,,
1556798724384,,,87.51726422991072,,,,,,,
1556798724386,,,,3.1092053851154726,,,,,110.47828250419957,43.983766093004384
1556798724419,,32.112791938395915,87.51726422991072,,,,,,,
1556798724426,,,,,6.256239891052246,,,,,
1556798724427,,,,,,3.94097638130188,4.103786945343018,1012.5380859375,101.93127747497994,
1556798724447,,,,3.193868222073463,,,,,,
1556798724448,,,,,,,,,87.37112416464277,44.3884431294157
1556798724460,5687.0,33.95268530046815,87.51726422991072,,,,,,,
1556798724484,5312.0,,,,6.948185443878174,4.805309772491455,,,,
1556798724485,,,,,6.067092418670654,4.508419513702393,5.334444046020508,,102.51372868664191,
1556798724499,,35.05992084112671,87.51726422991072,,,,,,,
1556798724506,,,,2.1341837851798426,,,,,,
1556798724507,,,57.4161376953125,,,,,,110.16187399089873,43.29497932025642
1556798724525,,,,,,,,1012.535888671875,,
1556798724539,,28.391230341620194,57.4161376953125,,,,,,,
1556798724545,,,,,4.948966026306152,,,,,
1556798724546,,,,,,4.714327335357666,6.0263895988464355,,105.08739177722691,
1556798724568,,,,2.376863350971333,,,,,92.75930330651494,
1556798724569,5312.0,,,,,,,,,43.47205834332592
1556798724580,,32.06828628555019,57.4161376953125,,,,,,,
1556798724604,,,,,4.22110652923584,4.944177627563477,4.719115734100342,,97.59500210680312,
1556798724605,,,,,4.051113128662109,4.8172807693481445,5.193181991577148,,101.09497545262525,
1556798724619,,33.316236371911174,,,,,,,,
1556798724628,,,,1.799142816210867,,,,1012.540771484375,102.05121559680538,43.53875465476497
1556798724659,,31.032035121142222,,,,,,,,
1556798724664,,,311.3720703125,,,,,,,
1556798724665,5717.0,,,,4.185192584991455,5.384724140167236,5.178816318511963,,97.73554690935447,
1556798724666,,,,,,5.34162712097168,3.9864675998687744,,90.0518094893327,
1556798724678,5717.0,,,,,,,,,
1556798724686,,,,2.754202146392999,,,,,83.88270749889631,43.496356596646365
1556798724699,,31.570551604264313,311.3720703125,,,,,,,
1556798724727,,,,,6.416656494140625,5.724710941314697,,,,
1556798724728,,,,,,,3.2442424297332764,1012.53857421875,81.84677154128809,
1556798724740,,30.52151268090065,311.3720703125,,,,,,,
1556798724747,,,,1.4746463998352688,,,,,101.52632238927902,43.61805873229408
1556798724778,,30.77649654710372,,,,,,,,
1556798724779,,,311.3720703125,,,,,,,
1556798724784,,,,,6.842837333679199,5.894704341888428,7.223526954650879,,,
1556798724785,,,,,6.644112586975098,5.863578796386719,6.189200401306152,,102.0316539350224,
1556798724793,5717.0,,,,,,,,,
1556798724806,,,,0.8913523063418841,,,,,98.681077316916,43.636256266475506
1556798724819,,31.25798165439946,,,,,,,,
1556798724824,,,,,,,,1012.537841796875,,
1556798724844,5814.0,,,,6.227508544921875,6.306519985198975,6.304125785827637,,,
1556798724845,,,,,6.5555243492126465,6.474119186401367,6.768614768981934,,98.94645748692767,
1556798724858,,30.96238454915591,0.0,,,,,,,
1556798724866,,,,2.889759160866611,,,,,103.91125369271822,
1556798724867,,,,,,,,,,43.55313852416583
1556798724894,5814.0,,,,,,,,,
1556798724899,,32.703970353573354,,,,,,,,
1556798724905,,,,,6.584255695343018,6.0886406898498535,10.616214752197266,,109.6992311274679,
1556798724927,,,,4.0028311723590315,,,,1012.538330078125,108.0428897631723,42.50393357177059
1556798724938,,30.514297084035146,0.0,,,,,,,
1556798724964,,,,,4.8220696449279785,4.534756660461426,8.360807418823242,,107.98789307997538,
1556798724979,,33.04806099404741,,,,,,,,
1556798724986,,,,3.0751353040250966,,,,,100.59165198249781,43.99313620040369
1556798724994,5814.0,,,,,,,,,
1556798725019,,29.995107739604734,,,,,,,,
1556798725026,6573.0,,,,3.691971778869629,4.630527496337891,5.928224563598633,1012.536376953125,102.21233975932591,
1556798725047,,,,,,,,,107.59551920272565,
1556798725048,,,,2.286409578839065,,,,,,43.64578291835061
1556798725060,,29.52298667200791,0.0,,,,,,,
1556798725086,,,,,5.5044379234313965,4.154066562652588,8.607418060302734,,108.2906138941795,
1556798725094,6573.0,,,,,,,,,
1556798725099,,28.12023099393075,,,,,,,,
1556798725107,,,,0.6634095291444071,,,,,100.56201579168913,44.353678428098284
1556798725129,,,,,,,,1012.539794921875,,
1556798725139,,29.074829596880917,0.0,,,,,,,
1556798725146,,,,,5.047131061553955,4.283357620239258,4.024775981903076,,89.15380353801612,
1556798725167,,,,3.2231126866633404,,,,,79.66484712036004,43.65023597199935
1556798725178,,31.711046264238384,,,,,,,,
1556798725198,6573.0,,,,,,,,,
1556798725207,6423.0,,,,4.216318130493164,4.470110893249512,3.3543789386749268,,,
1556798725208,,,,,,,,,80.02358231594741,
1556798725213,,,,,5.5044379234313965,5.3775410652160645,3.9792847633361816,,,
1556798725214,,,,,,,,,79.50618182594064,
1556798725219,,34.6051628020048,,,,,,,,
1556798725228,,,85.7119140625,,,,,,,
1556798725232,,,,2.5630971631443287,,,,1012.54150390625,78.42667725780927,44.28918578360897
1556798725262,,33.12455140952845,85.7119140625,,,,,,,
1556798725265,,,,,5.755836486816406,5.265010356903076,4.860377788543701,,,
1556798725266,,,,,6.0623040199279785,5.478100776672363,6.687209606170654,,85.81084258083422,
1556798725288,,,,,,,,,94.38283927222699,44.612892585769316
1556798725289,,,,0.9523491437601211,,,,,,
1556798725299,,32.42941528076518,85.7119140625,,,,,,,
1556798725311,6423.0,,,,,,,,,
1556798725329,,,,,5.339232921600342,5.456552505493164,6.6824212074279785,1012.53271484375,94.81455503909598,
1556798725339,,30.73858152074819,85.7119140625,,,,,,,
1556798725347,,,,0.8253108017140963,,,,,95.1067778525458,43.72934039892489
1556798725353,,,80.67325846354167,,,,,,,
1556798725379,,32.73068758086486,80.67325846354167,,,,,,,
1556798725385,7122.0,,,,5.547534942626953,5.454157829284668,6.560312747955322,,96.51409734989193,
1556798725386,,,,,6.232297420501709,5.296135902404785,7.288172721862793,,99.7348593926331,
1556798725407,,,,1.2824042168853116,,,,,101.41559819264398,43.45019237127618
1556798725411,7122.0,,,,,,,,,
1556798725418,,30.151997918647524,80.67325846354167,,,,,,,
1556798725419,,,0.0,,,,,,,
1556798725428,,,,,,,,1012.53955078125,,
1556798725446,,,,,5.916253089904785,5.487678050994873,6.651295185089111,,98.35522948218221,
1556798725460,,32.38764181617347,,,,,,,,
1556798725467,,,,3.8456524118593136,,,,,107.47373692982433,43.44236147313003
1556798725498,,31.994085889482978,0.0,,,,,,,
1556798725505,,,,,7.901106834411621,5.231490612030029,10.625791549682617,,108.98783277446523,
1556798725512,7122.0,,,,,,,,,
1556798725527,,,,3.499872750285141,,,,1012.541015625,108.07575663345841,44.20013068898761
1556798725539,,30.636086226932832,,,,,,,,
1556798725565,5921.0,,,,,,,,,
1556798725566,,,,,7.319298267364502,4.503631114959717,1.9848538637161255,,89.91624389468632,
1556798725578,,30.938467654386997,0.0,,,,,,,
1556798725587,,,,2.1061734239371694,,,,,94.32503538128117,44.092979287717014
1556798725612,5921.0,,,,,,,,,
1556798725619,,31.697841934855646,,,,,,,,
1556798725628,,,,,7.649707794189453,,,,,
1556798725629,,,,,7.625765323638916,5.217124938964844,5.485283374786377,1012.5419921875,102.81679784049373,
1556798725630,,,,,,5.2219133377075195,4.237866401672363,,98.66249237218437,
1556798725648,,,,1.1744258837514934,,,,,101.8483316576993,43.91528597167367
1556798725665,,29.514936368786856,,,,,,,,
1556798725686,,,,,6.785374641418457,5.104593753814697,,,,
1556798725687,,,,,5.964138507843018,4.889109134674072,3.9290049076080322,,99.71326916466666,
1556798725699,,30.170122698617018,0.0,,,,,,,
1556798725708,,,,2.918726075950449,,,,,,
1556798725711,,,,,,,,,88.58833217663073,42.916316889558395
1556798725713,5921.0,,,,,,,,,
1556798725729,,,,,,,,1012.538330078125,,
1556798725739,,28.49948749071682,,,,,,,,
1556798725749,4658.0,,,,5.08065128326416,,,,,
1556798725750,,,,,,4.4485626220703125,3.222693920135498,,98.75169464274472,
1556798725751,,,,,4.972908973693848,5.418243885040283,3.7135202884674072,,95.98192999089952,
1556798725768,,,,1.7775694316067485,,,,,98.79460872129994,42.65189519011698
1556798725779,,28.908919312836836,,,,,,,,
1556798725780,,,0.0,,,,,,,
1556798725806,,,,,3.66084623336792,5.078257083892822,3.747040033340454,,100.65915474206503,
1556798725807,,,,,2.70074200630188,,,,,
1556798725808,,,,,3.282550811767578,5.142902374267578,6.684815406799316,,116.79070235399033,
1556798725813,4658.0,,,,,,,,,
1556798725820,,27.073871781329824,,,,,,,,
1556798725830,,,,2.9103312394955982,,,,1012.542236328125,115.41384550034246,40.865152787856786
1556798725859,,29.605861762621856,0.0,,,,,,,
1556798725866,,,,,6.306519985198975,6.354405403137207,4.683201313018799,,103.84685183903417,
1556798725867,,,,,,6.58186149597168,5.312895774841309,,105.49648595756486,
1556798725888,,,,0.7695956517878879,,,,,105.86827364465614,41.1242104347195
1556798725898,,30.357661172370754,,,,,,,,
1556798725914,4658.0,,,,,,,,,
1556798725927,5149.0,,,,6.316096782684326,7.4222517013549805,6.883540153503418,1012.542236328125,108.98048349091829,
1556798725938,,30.988776986624735,,,,,,,,
1556798725948,,,,2.9461396773427233,,,,,109.88093464995777,41.5925502219393
1556798725978,,31.498475992881115,0.0,,,,,,,
1556798725986,,,,,6.368771076202393,7.901106834411621,6.577073097229004,,109.22242928188766,
1556798725987,,,,,,,,,109.27338249309594,
1556798726008,,,,3.413719317124775,,,,,115.66792853746693,41.952099757462214
1556798726018,,29.471924579779923,,,,,,,,
1556798726025,,,,,,,,1012.548095703125,,
1556798726027,5149.0,,,,,,,,,
1556798726046,,,,,7.81251859664917,7.867587089538574,9.507665634155273,,117.36184277238681,
1556798726059,,28.861913467230657,0.0,,,,,,,
1556798726067,,,,2.20261739740542,,,,,112.90623033903151,
1556798726068,,,,,,,,,,42.29906321923518
1556798726098,,27.98000805579525,,,,,,,,
1556798726106,4955.0,,,,4.422225475311279,5.545140266418457,4.953754425048828,,110.93096012163133,
1556798726127,4955.0,,,,,,,,,
1556798726128,,,,2.4662713271010177,,,,1012.57080078125,95.13676921319131,42.09648876210489
1556798726138,,30.14392896699011,,,,,,,,
1556798726139,,,0.0,,,,,,,
1556798726166,,,,,5.933012962341309,5.537957668304443,4.21152925491333,,106.80351095713849,
1556798726167,,,,,6.033572673797607,5.291347503662109,5.0375542640686035,,111.145277797408,
1556798726178,,28.310041347367058,,,,,,,,
1556798726187,,,,1.7220824793381153,,,,,112.15837926642848,42.80103191087219
1556798726218,,28.269019036199417,,,,,,,,
1556798726226,,,,,6.536370277404785,4.678412914276123,4.972908973693848,1012.57080078125,112.72486832600015,
1556798726243,4955.0,,,,,,,,,
1556798726247,,,,2.88295309246009,,,,,,
1556798726248,,,,,,,,,97.24818559131734,43.08321591415688
1556798726258,,29.47139072738719,0.0,,,,,,,
1556798726286,4238.0,,,,4.036747455596924,4.453351020812988,0.45251792669296265,,70.9296977002632,
1556798726287,,,,,,5.056708335876465,1.5874042510986328,,81.05146431433184,
1556798726298,,28.68976130224557,,,,,,,,
1556798726307,,,,4.161576149633014,,,,,80.78232754027664,43.48410831943862
1556798726327,,,,,,,,1012.5478515625,,
1556798726338,,25.598157322639207,0.0,,,,,,,
1556798726344,4238.0,,,,,,,,,
1556798726346,,,,,4.027170181274414,5.456552505493164,2.7773587703704834,,94.21707741125994,
1556798726347,,,,,,6.160469055175781,4.707144260406494,,104.6964249189462,
1556798726368,,,,1.117875854130141,,,,,100.46670733201074,43.25051057550786
1556798726382,,26.630633317051565,,,,,,,,
1556798726406,,,,,6.0311784744262695,6.5866498947143555,2.918621063232422,,91.03345793722531,
1556798726407,,,,,5.142902374267578,7.5180230140686035,4.082238674163818,,95.53748958160679,
1556798726420,,26.78829499873811,0.0,,,,,,,
1556798726428,,,,2.5308327978604828,,,,1012.54638671875,89.48952782628976,44.19719741766914
1556798726458,,29.633666769781016,,,,,,,,
1556798726460,4238.0,,,,,,,,,
1556798726467,4068.0,,,,5.918647289276123,8.028003692626953,2.5906052589416504,,,
1556798726468,,,,,,,,,82.34937784155267,
1556798726488,,,,2.0513860482819153,,,,,100.67918768690072,44.27511867196696
1556798726499,,30.65498628830202,,,,,,,,
1556798726527,,,,,8.559532165527344,6.7398834228515625,3.6057779788970947,1012.54638671875,97.68102150921027,
1556798726538,,31.19718668268512,0.0,,,,,,,
1556798726548,,,,2.1205503213709194,,,,,98.25910139980346,44.45303640279782
1556798726561,4068.0,,,,,,,,,
1556798726578,,31.7198583809327,,,,,,,,
1556798726587,,,,,9.35203742980957,6.505244731903076,2.0830190181732178,,92.60129371025585,
1556798726588,,,,,8.035185813903809,6.878751754760742,4.051113128662109,,96.12437358604012,
1556798726609,,,,1.5454380026865215,,,,,96.66416343614628,44.353475731004174
1556798726618,,33.767040721429865,0.0,,,,,,,
1556798726627,,,,,,,,1012.545654296875,,
1556798726647,4196.0,,,,10.003279685974121,4.398283004760742,,,,
1556798726648,,,,,,,5.312895774841309,,110.43448733124143,
1556798726659,,33.959520892875545,,,,,,,,
1556798726670,4196.0,,,3.180921610312739,,,,,109.47796031911616,44.348928776444716
1556798726698,,32.37753839548401,,,,,,,,
1556798726704,,,111.19189453125,,,,,,,
1556798726706,,,,,7.115784645080566,4.5706706047058105,-0.7589851021766663,,90.10534451204728,
1556798726728,,,,2.213131843476594,,,,1012.5361328125,95.01161282684001,43.47160395420156
1556798726738,,31.623476163039502,111.19189453125,,,,,,,
1556798726767,,,,,8.854028701782227,,,,,
1556798726768,,,,,8.13335132598877,6.047938346862793,-0.39505535364151,,95.15210981806717,
1556798726770,4196.0,,,,,,,,,
1556798726778,,30.109416665811448,111.19189453125,,,,,,,
1556798726789,,,,1.3688197392503518,,,,,103.36356131374242,42.49088738229258
1556798726818,,30.257768712089273,111.19189453125,,,,,,,
1556798726828,4081.0,,,,6.565101623535156,4.575459003448486,1.5155760049819946,1012.5361328125,108.94366194110276,
1556798726830,,,,,5.676825523376465,4.364762783050537,1.3575538396835327,,106.2446717094372,
1556798726849,,,,2.006717724810615,,,,,100.29700445189263,42.68969256957203
1556798726859,,29.7601916166656,,,,,,,,
1556798726878,4081.0,,,,,,,,,
1556798726889,,,,,5.025582790374756,8.147717475891113,0.7158881425857544,,77.62111791690882,
1556798726898,,27.622484598512166,0.0,,,,,,,
1556798726911,,,,1.9396273101617845,,,,,96.28666571090878,41.20475600818543
1556798726927,,,,,,,,1012.5361328125,,
1556798726939,,29.072373414475877,,,,,,,,
1556798726948,,,,,4.84122371673584,7.075081825256348,2.164424419403076,,99.03161628549935,
1556798726949,,,,,,8.839662551879883,-0.15562786161899567,,73.86349617521546,
1556798726970,,,,3.0445923691180394,,,,,,
1556798726971,,,,,,,,,73.99601550549204,41.59683633937591
1556798726978,4081.0,31.74325218827817,0.0,,,,,,,
1556798727020,,31.21541792963887,,,,,,,,
1556798727058,,31.23857379394785,,,,,,,,
1556798727098,,31.84854567146097,0.0,,,,,,,
1556798727144,,30.752238865066413,,,,,,,,
1556798727182,4111.0,,,,5.578660488128662,9.215563774108887,1.6544438600540161,,,
1556798727183,,,,2.0493865002271368,,,,1012.533935546875,87.97308239657434,38.84062729803325
1556798727184,,30.025106032120267,0.0,,,,,,,
1556798727185,4111.0,,,,,,,,,
1556798727195,5067.0,,,,3.3064935207366943,6.7398834228515625,8.854028701782227,,,
1556798727196,,,,,,,,,149.70280215277552,
1556798727218,,31.485566649745387,,,,,,,,
1556798727220,,,,1.9871467996248484,,,,,151.43965095681807,35.872072744726225
1556798727239,,,,,,,,1012.54541015625,,
1556798727258,,31.078060152257052,0.0,,,,,,,
1556798727289,,,,2.7483808779454764,3.0191805362701416,5.08065128326416,5.722316741943359,,152.41270702673475,34.63678749385243
1556798727290,5067.0,,,,,,,,,
1556798727298,,32.01969507304653,,,,,,,,
1556798727308,,,,,1.4006507396697998,4.84122371673584,5.0686798095703125,,154.27626950025936,
1556798727310,,,,,0.9170072674751282,6.282577037811279,7.896318435668945,,157.17877204843464,
1556798727327,,,,2.9387438149591976,,,,,,
1556798727328,,,,,,,,1012.551025390625,161.57358896798763,35.0422065338303
1556798727338,,31.352880984749024,,,,,,,,
1556798727369,6319.0,,,,-0.6177229285240173,4.273780345916748,6.263422966003418,,162.3422311364242,
1556798727370,,,,,,,,,163.09409836025918,
1556798727378,,31.400941893658405,,,,,,,,
1556798727379,,,0.0,,,,,,,
1556798727389,,,,4.227232366986356,,,,,151.29777426737854,35.19791551328043
1556798727390,6319.0,,,,,,,,,
1556798727421,,32.309531909885465,,,,,,,,
1556798727430,,,,,3.105374336242676,,,,,
1556798727444,,,,,,3.6153550148010254,2.8013014793395996,1012.551025390625,147.25902876963664,
1556798727455,,,,4.64548800201394,,,,,149.54934146250366,35.80094951484958
1556798727458,,31.97795940748196,,,,,,,,
1556798727468,,,181.5478515625,,,,,,,
1556798727472,,,181.5478515625,,,,,,,
1556798727487,,,,,1.8292258977890015,0.6656084060668945,6.505244731903076,,,
1556798727488,,,,,,,6.601015567779541,,151.5676487018641,
1556798727498,,30.75171915449516,181.5478515625,,,,,,,
1556798727538,,30.199899465325167,181.5478515625,,,,,,,
1556798727539,,,0.0,,,,,,,
1556798727557,,,,2.1243661047223736,,,,,,
1556798727562,8849.0,,,,,,,1012.548828125,149.38073141265272,36.18606885196142
1556798727563,8849.0,,,,6.007235527038574,3.38071608543396,7.259441375732422,,,
1556798727573,,,,1.0218256130591576,,,,,141.70467795544727,37.258937080567094
1556798727578,,29.32126186358809,,,,,,,,
1556798727609,,,,,8.916279792785645,1.848380208015442,8.983319282531738,,146.9952332035124,
1556798727626,,30.19194265996847,,,,,,,,
1556798727631,,,,4.108780850583905,,,,1012.55322265625,,
1556798727632,,,,,,,,,135.28520172060573,38.56963958892293
1556798727660,,31.404765099343884,0.0,,,,,,,
1556798727664,8849.0,,,,,,,,,
1556798727670,,,,,10.419883728027344,,,,,
1556798727671,,,,,11.442239761352539,0.8715160489082336,7.618582248687744,,148.7440758197375,
1556798727689,,,,,,,,,146.194898957327,39.83105163078531
1556798727690,,,,2.864661494258016,,,,,,
1556798727699,,30.648256459082326,,,,,,,,
1556798727730,10810.0,,,,,,,,,
1556798727731,,,,,10.881978988647461,-0.6871568560600281,6.823683261871338,1012.55322265625,151.73961920478666,
1556798727733,,,,,10.518049240112305,-0.9409499764442444,6.859597206115723,,,
1556798727734,,,,,,,,,151.131991915844,
1556798727738,,33.432218669543005,0.0,,,,,,,
1556798727749,,,,3.137259582791857,,,,,125.05419306095192,
1556798727750,,,,,,,,,,42.352052287955416
1556798727764,10810.0,,,,,,,,,
1556798727778,,33.98329615620452,,,,,,,,
1556798727788,,,,,11.322525978088379,,,,,
1556798727789,,,,,11.645752906799316,0.5626545548439026,3.8021082878112793,,167.1607929920848,
1556798727790,,,,,,-1.3407938480377197,2.8013014793395996,,185.13644751105494,
1556798727809,,,,1.4051208625340925,,,,,160.6770719979101,43.16636150458049
1556798727821,,36.74074258125899,,,,,,,,
1556798727829,,,104.384765625,,,,,1012.5615234375,,
1556798727832,,,104.384765625,,,,,,,
1556798727849,,,,,9.648927688598633,-2.3056867122650146,2.7342617511749268,,166.80726240064493,
1556798727850,,,,,,,,,222.48584800603066,
1556798727858,,36.40732971284244,104.384765625,,,,,,,
1556798727864,10810.0,,,,,,,,,
1556798727869,,,,3.429833341725828,,,,,216.51762870927348,
1556798727870,,,,,,,,,,45.220817906458294
1556798727898,,38.592469788821504,104.384765625,,,,,,,
1556798727911,6494.0,,,,12.97457504272461,-4.630527496337891,-1.8244373798370361,,206.3366716758576,
1556798727930,,,,2.114188008554669,,,,,,
1556798727931,,,,,,,,1012.55908203125,183.38727704574978,46.87171489459996
1556798727938,,36.527942670753916,104.384765625,,,,,,,
1556798727943,,,109.072265625,,,,,,,
1556798727965,6494.0,,,,,,,,,
1556798727971,,,,,9.01205062866211,-3.32085919380188,-0.7302538156509399,,191.73553040031118,
1556798727972,,,,,,-2.9305922985076904,-0.6033572554588318,,190.40449045561581,
1556798727978,,37.05215697447337,109.072265625,,,,,,,
1556798727990,,,,2.190608186970185,,,,,198.7661309809505,
1556798727991,,,,,,,,,,48.36174858695836
1556798728018,,35.252298943044295,109.072265625,,,,,,,
1556798728023,,,113.2763671875,,,,,,,
1556798728031,,,,,8.856422424316406,-1.8388030529022217,,,,
1556798728032,,,,,,,-0.10295381397008896,1012.55908203125,176.56849064918524,
1556798728033,,,,,7.898712635040283,-1.5155760049819946,,,,
1556798728034,,,,,,-1.501210331916809,0.2490045726299286,,159.7976578215143,
1556798728050,,,,2.4730957026429756,,,,,133.9879438915452,49.572999039785785
1556798728058,,33.8305749153119,113.2763671875,,,,,,,
1556798728066,6494.0,,,,,,,,,
1556798728091,5742.0,,,,9.000079154968262,,,,,
1556798728092,,,,,,-1.4748733043670654,-0.4429408311843872,,158.73548144330726,
1556798728093,,,,,9.23232364654541,,,,,
1556798728094,,,,,,-1.6568381786346436,-1.8531687259674072,,229.95505601441147,
1556798728098,,35.39824509505853,113.2763671875,,,,,,,
1556798728102,,,113.6669921875,,,,,,,
1556798728110,,,,8.72627748247624,,,,,80.48022144309778,50.26327884578949
1556798728129,,,,,,,,1012.554443359375,,
1556798728138,,34.98277569729008,113.6669921875,,,,,,,
1556798728150,,,,,9.703995704650879,-1.0199611186981201,5.660065650939941,,88.14829040916351,
1556798728166,5742.0,,,,,,,,,
1556798728170,,,,2.0429480936381035,,,,,139.15525520622666,50.840539215403815
1556798728178,,33.783536035280186,113.6669921875,,,,,,,
1556798728185,,,113.094482421875,,,,,,,
1556798728210,,,,,10.000885963439941,-1.9848538637161255,-1.673598051071167,,138.93158017128707,
1556798728211,,,,,,,,,251.80017298026831,
1556798728218,,33.90813291727986,113.094482421875,,,,,,,
1556798728230,,,,2.752245939554093,,,,1012.56005859375,249.12240414635397,51.282380264976396
1556798728259,,32.180544518568624,113.094482421875,,,,,,,
1556798728266,5742.0,,,,,,,,,
1556798728271,5130.0,,,,,,,,,
1556798728272,,,,,5.061496734619141,-2.1835787296295166,-6.409473896026611,,253.856053090253,
1556798728289,,,,1.3713074868043942,,,,,,
1556798728290,,,,,,,,,175.92314705564576,50.72175807005836
1556798728298,,31.757612274485766,,,,,,,,
1556798728299,,,113.094482421875,,,,,,,
1556798728304,,,113.2763671875,,,,,,,
1556798728330,,,,,11.047183990478516,-1.9321798086166382,-1.7143007516860962,1012.56005859375,116.09885883258141,
1556798728332,,,,,8.547560691833496,-2.6887705326080322,-3.5531039237976074,,197.8384000463659,
1556798728338,,32.594340505526446,113.2763671875,,,,,,,
1556798728350,,,,4.2612096270850035,,,,,226.37508066284101,50.39531856312801
1556798728366,5130.0,,,,,,,,,
1556798728381,,31.447568327475338,113.2763671875,,,,,,,
1556798728390,,,,,5.806116580963135,-4.4174370765686035,-4.7861552238464355,,225.68864665125466,
1556798728410,,,,6.281704862456044,,,,,203.5107628690348,49.446480582844025
1556798728418,,31.247292941312985,,,,,,,,
1556798728429,,,,,,,,1012.56396484375,,
1556798728453,5672.0,,,,11.468576431274414,-6.134131908416748,-1.2546000480651855,,,
1556798728454,,,,,,,,,180.410953813025,
1556798728459,,32.43179976620696,0.0,,,,,,,
1556798728467,5672.0,,,,,,,,,
1556798728470,,,,3.6176343604749315,,,,,215.8061415638116,
1556798728471,,,,,,,,,,47.309152965038486
1556798728498,,29.51017122036419,,,,,,,,
1556798728510,,,,,6.850020408630371,-3.94097638130188,,,,
1556798728511,,,,,11.628993034362793,-3.6033835411071777,0.48843204975128174,,182.3922141063273,
1556798728531,,,,3.9412507857331893,,,,1012.570068359375,265.37694980485287,45.47873304630495
1556798728538,,31.80425795736904,,,,,,,,
1556798728568,5672.0,,,,,,,,,
1556798728571,,,,,7.745479106903076,-3.6752119064331055,-3.4932470321655273,,256.59353143789156,
1556798728578,,32.00405469128229,0.0,,,,,,,
1556798728590,,,,7.897270320149962,,,,,126.65779853466586,46.960532014812806
1556798728618,,31.181544570824368,,,,,,,,
1556798728637,5436.0,,,,0.16281068325042725,-4.0128045082092285,0.6273000240325928,1012.573974609375,120.86872143945982,
1556798728650,,,,2.7441493132647157,,,,,239.44908726262088,43.67806302240335
1556798728658,,32.14959576033702,,,,,,,,
1556798728664,,,113.2763671875,,,,,,,
1556798728669,5436.0,,,,,,,,,
1556798728690,,,,,5.329655647277832,-5.224307537078857,2.789330244064331,,188.0081595664518,
1556798728698,,33.055532785550234,113.2763671875,,,,,,,
1556798728710,,,,3.288626381418616,,,,,148.81877076850077,44.63657119462355
1556798728729,,,,,,,,1012.579345703125,,
1556798728739,,31.813261005456866,113.2763671875,,,,,,,
1556798728747,,,113.6669921875,,,,,,,
1556798728748,,,113.6669921875,,,,,,,
1556798728750,,,,,7.522811412811279,-7.767027378082275,5.3200788497924805,,162.23365844937766,
1556798728752,,,,,9.821314811706543,-8.760651588439941,3.409447431564331,,211.80695652174245,
1556798728769,5436.0,,,,,,,,,
1556798728770,,,,3.863857986091379,,,,,206.16572570131052,44.99203921629444
1556798728778,,32.91160740051242,113.6669921875,,,,,,,
1556798728811,2899.0,,,,7.285778045654297,-8.200390815734863,4.3551859855651855,,,
1556798728812,,,,,,,,,168.27814363840716,
1556798728813,,,,,8.080677032470703,-8.109408378601074,8.293767929077148,,114.30930145871389,
1556798728818,,33.40820781584734,113.6669921875,,,,,,,
1556798728830,,,,3.563295777434895,,,,,169.42976817398468,45.45929442637287
1556798728831,,,,,,,,1012.57763671875,,
1556798728858,,32.847575115711095,113.6669921875,,,,,,,
1556798728864,,,113.60432942708334,,,,,,,
1556798728870,2899.0,,,,6.5555243492126465,-9.596253395080566,1.594586968421936,,206.32027922184955,
1556798728890,,,,5.2492304646673125,,,,,,
1556798728891,,,,,,,,,250.19925860108737,46.28656644931655
1556798728899,,34.13563088311568,113.60432942708334,,,,,,,
1556798728930,,,,,5.801327705383301,-8.051946640014648,-2.1237218379974365,1012.58154296875,257.66530423188243,
1556798728931,,,,,6.067092418670654,-7.601822376251221,-2.9234094619750977,,266.31427032503206,
1556798728938,,34.043467651420485,,,,,,,,
1556798728939,,,113.60432942708334,,,,,,,
1556798728950,,,,5.284664336979314,,,,,,
1556798728951,,,,,,,,,274.78550806578875,46.420499514546975
1556798728970,2899.0,,,,,,,,,
1556798728979,,33.50074325603607,,,,,,,,
1556798728992,238.0,,,,6.112583637237549,,,,,
1556798728993,,,,,,-6.217931747436523,-2.571451187133789,,271.7114448260411,
1556798728994,,,,,8.107014656066895,,,,,
1556798728995,,,,,,-6.567495822906494,-0.2130904644727707,,261.9280935947791,
1556798729011,,,,4.479911257341738,,,,,266.77709760357044,46.34179326755902
1556798729019,,35.56344694436788,,,,,,,,
1556798729030,,,112.744140625,,,,,1012.592041015625,,
1556798729050,,,,,5.482889175415039,-3.8859081268310547,,,,
1556798729051,,,,,,-2.317657947540283,-0.5818088054656982,,273.17524998782324,
1556798729052,,,,,3.6177492141723633,-4.185192584991455,,,,
1556798729053,,,,,,,-0.13886794447898865,,245.67693571010852,
1556798729059,,34.96632304517761,112.744140625,,,,,,,
1556798729070,238.0,,,4.313548306193889,,,,,,
1556798729071,,,,,,,,,237.22905721631332,46.69472808837149
1556798729101,,35.85561563341519,112.744140625,,,,,,,
1556798729111,,,,,3.1724140644073486,,,,,
1556798729112,,,,,2.4637088775634766,-7.800547122955322,-0.5506832003593445,,226.05938931940295,
1556798729132,,,,4.839663252031737,,,,,,
1556798729133,,,,,,,,1012.592041015625,268.7644709161799,47.93988629333611
1556798729140,,36.19671098771549,112.744140625,,,,,,,
1556798729155,,,113.8232421875,,,,,,,
1556798729170,238.0,,,,,,,,,
1556798729172,10.0,,,,,,,,,
1556798729173,,,,,3.6512691974639893,-9.462174415588379,-1.9944308996200562,,245.702384994956,
1556798729174,,,,,3.4645156860351562,,,,,
1556798729175,,,,,,-8.56432056427002,0.03351984918117523,,206.54958233266518,
1556798729179,,35.27485445157471,,,,,,,,
1556798729180,,,113.8232421875,,,,,,,
1556798729191,,,,,,,,,207.74526158838933,48.35180815185045
1556798729193,,,,1.294042412335506,,,,,,
1556798729219,,35.78945129112662,113.8232421875,,,,,,,
1556798729227,,,113.1982421875,,,,,,,
1556798729228,,,113.1982421875,,,,,,,
1556798729230,,,,,4.805309772491455,,,,,
1556798729231,,,,,,-8.008849143981934,-0.5099805593490601,1012.591796875,232.47290962928827,
1556798729232,,,,,5.458946704864502,,,,,
1556798729233,,,,,,-8.44460678100586,1.2474172115325928,,192.79897719370388,
1556798729251,,,,3.098106938367767,,,,,185.9008139810711,
1556798729252,,,,,,,,,,46.73013817495523
1556798729259,,36.01686039222361,113.1982421875,,,,,,,
1556798729270,10.0,,,,,,,,,
1556798729293,,,,,4.087027072906494,-9.838075637817383,2.4086403846740723,,,
1556798729294,,,,,,,,,147.07750966225439,
1556798729299,,35.026121166965176,113.1982421875,,,,,,,
1556798729311,,,,3.5479864992059036,,,,,226.30990699778073,47.89315515030156
1556798729312,,,113.3544921875,,,,,,,
1556798729330,,,,,,,,1012.607177734375,,
1556798729339,,35.66921068428522,,,,,,,,
1556798729340,,,113.3544921875,,,,,,,
1556798729352,8.0,,,,7.644919395446777,-8.008849143981934,0.33519846200942993,,284.7925138414228,
1556798729354,,,,,5.257827281951904,-10.084685325622559,0.6344828009605408,,,
1556798729355,,,,,,,,,192.03317638396197,
1556798729370,8.0,,,,,,,,,
1556798729371,,,,4.394251727221314,,,,,227.6546619623295,47.77224455275109
1556798729379,,35.79161888883805,113.3544921875,,,,,,,
1556798729411,,,,,6.847625732421875,-12.0455961227417,-4.189980983734131,,,
1556798729412,,,,,,,,,272.34644068298803,
1556798729413,,,,,2.262589693069458,,,,,
1556798729414,,,,,,-11.293794631958008,-2.106961727142334,,251.68425100967488,
1556798729419,,35.76348468358801,113.3544921875,,,,,,,
1556798729429,,,113.5888671875,,,,,,,
1556798729430,,,113.5888671875,,,,,,,
1556798729431,,,,3.025558634477141,,,,1012.600341796875,252.72108738606113,
1556798729432,,,,,,,,,,47.760715682547705
1556798729460,,47.20721716454606,113.5888671875,,,,,,,
1556798729470,8.0,,,,,,,,,
1556798729473,,,,,1.314456820487976,,,,,
1556798729474,,,,,,,,,130.15730059743524,
1556798729476,,,,,,-10.1852445602417,1.6376839876174927,,272.99678397499997,
1556798729491,,,,2.7833408683020044,,,,,243.70171330403258,47.100801008082975
1556798729499,,51.35731804738275,,,,,,,,
1556798729500,,,113.5888671875,,,,,,,
1556798729532,,,,,3.3591675758361816,-10.407912254333496,,,,
1556798729533,,,,,,,1.1564347743988037,1012.5966796875,184.24885076803344,
1556798729534,,,,,2.7151076793670654,,,,,
1556798729535,,,,,,-9.66329288482666,1.209108829498291,,176.21355303877635,
1556798729539,,49.07830025754205,,,,,,,,
1556798729551,,,,1.0204845079015186,,,,,191.13111330027846,46.50371523765766
1556798729570,8.0,,,,,,,,,
1556798729580,,52.869748947180646,,,,,,,,
1556798729590,,,247.6318359375,,,,,,,
1556798729591,,,,,3.4597270488739014,,,,,
1556798729592,,,,,2.818061351776123,-7.525205612182617,0.3471698462963104,,227.0023788965933,
1556798729593,,,,,2.2434353828430176,,,,,
1556798729594,,,,,,-9.488511085510254,0.3543526828289032,,209.7262486741248,
1556798729610,,,,2.3323853701506057,,,,,,
1556798729611,,,,,,,,,215.12123751459944,46.54344923744852
1556798729619,,47.54713397180393,247.6318359375,,,,,,,
1556798729629,,,,,,,,1012.58935546875,,
1556798729652,,,,,2.6600394248962402,-11.33210277557373,2.102173328399658,,177.31944262767146,
1556798729654,,,,,1.333611011505127,,,,,
1556798729655,,,,,,-8.262641906738281,-1.0774236917495728,,266.0786219684774,
1556798729660,,58.319651779383825,247.6318359375,,,,,,,
1556798729671,8.0,,,4.385843191298251,,,,,,
1556798729672,,,,,,,,,274.7130534190733,45.89701901308755
1556798729700,,67.21372989146539,247.6318359375,,,,,,,
1556798729709,,,247.6318359375,,,,,,,
1556798729713,17.0,,,,1.1708003282546997,-7.450983047485352,,,,
1556798729714,,,,,,-7.436617374420166,-1.3240339756011963,,284.9965042711744,
1556798729716,,,,,0.6177229285240173,-7.956175327301025,2.7175018787384033,,137.3197101686774,
1556798729731,,,,2.5230352594888124,,,,1012.595703125,140.30091015646957,44.82871312578489
1556798729739,,68.6427634312932,247.6318359375,,,,,,,
1556798729771,17.0,,,,-0.20590762794017792,-5.767807960510254,1.3671308755874634,,120.30927430492238,
1556798729781,,58.68418842159288,247.6318359375,,,,,,,
1556798729792,,,,3.1252625927269753,,,,,,
1556798729793,,,,,,,,,147.39990825145733,45.98345254932164
1556798729794,,,181.5478515625,,,,,,,
1556798729821,,45.52509909783173,181.5478515625,,,,,,,
1556798729832,,,,,0.797293484210968,-9.024022102355957,3.344801902770996,,,
1556798729833,,,,,,,,1012.603271484375,143.36015188571827,
1556798729834,,,,,2.88031268119812,,,,,
1556798729835,,,,,,-11.942643165588379,8.609811782836914,,129.44212514982155,
1556798729852,,,,7.303356485938049,,,,,117.56942588164182,45.69613348636449
1556798729860,,55.43304735539138,,,,,,,,
1556798729861,,,181.5478515625,,,,,,,
1556798729872,17.0,,,,,,,,,
1556798729873,,,180.2978515625,,,,,,,
1556798729874,,,180.2978515625,,,,,,,
1556798729893,19.0,,,,,,,,,
1556798729894,,,,,4.824463844299316,-12.907535552978516,10.814939498901367,,110.27864290494927,
1556798729896,,,,,4.755029678344727,-13.230762481689453,,,,
1556798729897,,,,,,,11.765466690063477,,102.41997751009433,
1556798729900,,61.36311863536917,180.2978515625,,,,,,,
1556798729912,,,,6.462744832519977,,,,,162.17703618115826,
1556798729913,,,,,,,,,,45.459770827011546
1556798729931,,,,,,,,1012.6083984375,,
1556798729941,,75.49435622723846,180.2978515625,,,,,,,
1556798729952,,,,,1.8986599445343018,,,,,
1556798729953,,,,,,-4.9154462814331055,-0.15802213549613953,,250.23060233918852,
1556798729954,,,,,,,,,181.48136739937104,
1556798729972,,,,2.665062143485156,,,,,,
1556798729973,,,,,,,,,178.2330897121874,44.90918763307022
1556798729974,19.0,,,,,,,,,
1556798729980,,57.137255706600605,,,,,,,,
1556798729981,,,180.2978515625,,,,,,,
1556798730010,,,,,-0.4070267081260681,,,,,
1556798730011,,,,,2.4397659301757812,-16.64978790283203,-3.414235830307007,,324.72631448435874,
1556798730018,,38.7863683581324,,,,,,,,
1556798730030,,,,3.882999776395663,,,,,,
1556798730031,,,,,,,,1012.6201171875,242.3259492806519,45.89293968951367
1556798730060,,32.73805694789162,,,,,,,,
1556798730071,,,0.0,,,,,,,
1556798730073,,,,,-0.6057515144348145,-5.0016398429870605,,,,
1556798730074,19.0,,,,,,-3.9218220710754395,,329.7472411847485,
1556798730076,,,,,0.05506832152605057,-4.716721534729004,-3.3687446117401123,,,
1556798730077,,,,,,,-0.9122186899185181,,322.6295386167186,
1556798730090,,,,,,,,,264.15796594368067,46.08382711382498
1556798730092,,,,4.067539082944893,,,,,,
1556798730099,,30.642439983470517,,,,,,,,
1556798730130,,,,,,,,1012.636474609375,,
1556798730132,,,,,5.573871612548828,-8.262641906738281,-5.051919937133789,,,
1556798730133,,,,,,,-3.251425266265869,,297.338437535334,
1556798730139,,30.53573173459708,0.0,,,,,,,
1556798730151,,,,,,,,,217.49873074203248,
1556798730152,,,,,,,,,,46.22282322503362
1556798730154,,,,2.5274250660097586,,,,,,
1556798730174,19.0,,,,,,,,,
1556798730180,,33.504295519195125,,,,,,,,
1556798730191,,,,,1.1253091096878052,-10.838882446289062,,,,
1556798730192,,,,,,,-2.60018253326416,,294.513321030455,
1556798730194,,,,,1.5059988498687744,-11.528432846069336,-3.4022645950317383,,296.6001145766231,
1556798730211,,,,3.200044220380421,,,,,294.25856863479186,46.03814310042817
1556798730219,,32.03479085664588,,,,,,,,
1556798730230,,,,,,,,1012.61181640625,,
1556798730252,10.0,,,,1.7454262971878052,,,,,
1556798730253,,,,,,-11.674484252929688,0.5435003638267517,,193.244879263479,
1556798730254,,,,,3.0215747356414795,,,,,
1556798730256,,,,,,-12.000104904174805,1.30009126663208,,187.19024441334284,
1556798730260,,35.79005300531116,,,,,,,,
1556798730271,,,,4.380072786257672,,,,,,
1556798730272,,,,,,,,,181.93487829988158,46.93798731113028
1556798730274,10.0,,,,,,,,,
1556798730276,,,48.728271484375,,,,,,,
1556798730299,,37.986118155542165,48.728271484375,,,,,,,
1556798730310,,,,,0.5267404317855835,-10.917893409729004,1.7047237157821655,,,
1556798730311,,,,,,,,,117.62614377250961,
1556798730330,,,,1.602612630305,,,,1012.608154296875,315.4149156643663,47.35326616295273
1556798730339,,32.87167749972353,48.728271484375,,,,,,,
1556798730352,,,55.9576416015625,,,,,,,
1556798730370,,,,,0.9505270719528198,,,,,
1556798730371,,,,,,-10.221158981323242,-0.42857518792152405,,234.24362251123574,
1556798730374,10.0,,,,,,,,,
1556798730379,,26.682627998977075,,,,,,,,
1556798730380,,,55.9576416015625,,,,,,,
1556798730391,,,,5.395006781742617,,,,,,
1556798730392,,,,,,,,,94.18010559728265,46.73241238121326
1556798730419,,30.371903992562697,,,,,,,,
1556798730420,,,55.9576416015625,,,,,,,
1556798730432,7.0,,,,,,,,,
1556798730433,,,,,1.6616266965866089,-10.800573348999023,2.2817440032958984,1012.612060546875,,
1556798730434,,,,,2.4014575481414795,-11.02324104309082,0.96010422706604,,110.36202585433676,
1556798730435,,,,,,,-0.40463244915008545,,166.52355000290095,
1556798730450,,,,4.373254482287271,,,,,,
1556798730451,,,,,,,,,220.92393400701047,47.478200903907236
1556798730460,,30.54427171682841,,,,,,,,
1556798730475,7.0,,,,,,,,,
1556798730491,,,,,3.720703125,,,,,
1556798730492,,,,,,-11.116618156433105,-0.5147690773010254,,226.7757942010673,
1556798730500,,32.084323676559,,,,,,,,
1556798730512,,,,4.85165606668027,,,,,151.0364922108689,46.825145354461355
1556798730531,,,,,,,,1012.611572265625,,
1556798730539,,31.03568120523995,,,,,,,,
1556798730540,,,0.0,,,,,,,
1556798730551,,,,,5.839636325836182,,,,,
1556798730552,,,,,,-14.516488075256348,-1.2138973474502563,,258.73319747842476,
1556798730571,,,,,,,,,10.861885058757537,47.02890208482619
1556798730574,,,,6.684538283455955,,,,,,
1556798730575,7.0,,,,,,,,,
1556798730580,,29.833040384773362,,,,,,,,
1556798730612,10.0,,,,,,,,,
1556798730613,,,,,-4.647287368774414,-10.391152381896973,1.0750293731689453,,,
1556798730614,,,,,,,,,14.08421377613962,
1556798730619,,32.84348873060383,0.0,,,,,,,
1556798730631,,,,7.560623566680265,,,,1012.613525390625,99.39207951894684,47.033148749696075
1556798730659,,30.05359042834581,,,,,,,,
1556798730670,,,,,-0.7087053656578064,,,,,
1556798730671,,,,,-1.2067145109176636,-14.17410659790039,0.09816526621580124,,,
1556798730672,,,,,-0.08140534162521362,-12.936266899108887,-5.418243885040283,,39.163652417787375,
1556798730676,10.0,,,,,,,,,
1556798730692,,,,8.892984569903788,,,,,326.17404138083464,45.7036564833881
1556798730700,,40.39180718573657,,,,,,,,
1556798730718,,,44.67960611979167,,,,,,,
1556798730719,,,44.67960611979167,,,,,,,
1556798730732,,,,,1.4437477588653564,-11.080703735351562,-6.31130838394165,,,
1556798730733,,,,,,,-0.9194015264511108,1012.61474609375,320.6352804734258,
1556798730734,,,,,0.2944957911968231,,,,,
1556798730735,,,,,,-8.80135440826416,1.144463300704956,,136.45918829552585,
1556798730739,,33.549328575056634,44.67960611979167,,,,,,,
1556798730751,,,,2.436627354059054,,,,,144.32419210593056,44.94016018684879
1556798730777,10.0,,,,,,,,,
1556798730780,,30.629101251443434,44.67960611979167,,,,,,,
1556798730794,29.0,,,,0.4549122154712677,-8.418270111083984,,,,
1556798730795,,,,,,,0.1245022863149643,,211.92125290731343,
1556798730798,,,,,,,,,338.4977636531197,
1556798730801,,,,,-0.5506832003593445,-5.990475654602051,,,,
1556798730802,,,,,,,-1.8196488618850708,,,
1556798730810,,,,6.419276247673511,,,,,343.64167303215737,45.085118515537474
1556798730819,,31.682274830054524,44.67960611979167,,,,,,,
1556798730829,,,43.06640625,,,,,1012.60546875,,
1556798730850,,,,,-1.240234375,-5.102199554443359,-0.7446194887161255,,,
1556798730851,,,,,,,,,17.697455564062636,
1556798730859,,28.096333771418827,43.06640625,,,,,,,
1556798730870,,,,6.87039307648337,,,,,39.01401663345075,44.445421630322016
1556798730877,29.0,,,,,,,,,
1556798730900,,25.576047156444858,43.06640625,,,,,,,
1556798730901,,,0.0,,,,,,,
1556798730911,,,,,-2.3703320026397705,,,,,
1556798730914,,,,,-1.6807808876037598,-4.096604347229004,0.40463244915008545,,54.366468472414795,
1556798730932,,,,4.904758882808239,,,,1012.625244140625,88.92978016342886,44.43416207692861
1556798730940,,26.690911837344515,,,,,,,,
1556798730973,37.0,,,,-1.2354458570480347,-6.229903221130371,5.063891410827637,,84.15702155634239,
1556798730978,,,,,-1.4652961492538452,-8.652909278869629,,,,
1556798730979,37.0,,,,,,8.827691078186035,,76.7887159325702,
1556798730983,,26.55228298927505,0.0,,,,,,,
1556798730993,,,,12.653204205265805,,,,,72.1527728447482,44.63697340662301
1556798731019,,26.092997177180578,,,,,,,,
1556798731029,,,,,4.276175022125244,,,,,
1556798731030,,,,,5.425426483154297,-18.13423728942871,11.736735343933105,1012.6220703125,121.96019932920618,
1556798731049,,,,0.25369940915833966,,,,,162.14621836762316,
1556798731050,,,,,,,,,,45.2081176432772
1556798731058,,27.0929015649221,0.0,,,,,,,
1556798731079,37.0,,,,,,,,,
1556798731089,,,,,-0.2130904644727707,,,,,
1556798731090,,,,,,-1.8531687259674072,2.7342617511749268,,54.130697172455086,
1556798731099,,31.41378663265487,,,,,,,,
1556798731110,,,,6.463254796705656,,,,,17.97452048019693,45.741923553892626
1556798731128,,,,,,,,1012.615478515625,,
1556798731138,,33.62370580987235,,,,,,,,
1556798731150,28.0,,,,-5.023188591003418,-22.697725296020508,-1.4676904678344727,,27.413560167851244,
1556798731168,,,,6.130392697872376,,,,,302.48566126366643,46.235788768377965
1556798731178,,39.74195775178292,,,,,,,,
1556798731179,28.0,,,,,,,,,
1556798731185,,,108.77587890625,,,,,,,
1556798731208,,,,,-2.418217658996582,-1.5538843870162964,-2.1811842918395996,,,
1556798731209,,,,,,,,,1.5419747558422046,
1556798731218,,34.0972126415714,,,,,,,,
1556798731219,,,108.77587890625,,,,,,,
1556798731229,,,,4.556240857276063,,,,1012.6318359375,304.6579790235269,45.56986899813526
1556798731258,,39.266617166128775,108.77587890625,,,,,,,
1556798731268,,,,,8.269824981689453,-16.606689453125,-10.376787185668945,,308.98040959825613,
1556798731269,,,,,,-9.974549293518066,-3.7422516345977783,,288.2222318614422,
1556798731279,28.0,,,,,,,,,
1556798731290,,,,4.383182176853182,,,,,213.80814730704282,45.850089950007394
1556798731298,,36.292907023837635,,,,,,,,
1556798731330,11.0,,,,-2.478074312210083,-7.829278469085693,1.3479766845703125,1012.630859375,45.38644994038384,
1556798731338,,30.792563301558925,,,,,,,,
1556798731343,,,281.650390625,,,,,,,
1556798731348,,,,2.603843353546513,,,,,,
1556798731349,,,,,,,,,346.23650629407484,46.010063654311054
1556798731379,11.0,30.353807225926936,281.650390625,,,,,,,
1556798731388,,,,,0.8499675393104553,-7.4270405769348145,-0.19633053243160248,,219.71546863716014,
1556798731390,,,,,1.2593885660171509,-8.11180305480957,-1.4868446588516235,,269.0839120334722,
1556798731408,,,,1.0110931819041116,,,,,,
1556798731409,,,,,,,,,244.28681462909253,46.09078037267588
1556798731418,,30.208599714218334,281.650390625,,,,,,,
1556798731441,,,,,,,,1012.607666015625,,
1556798731448,,,,,1.0079896450042725,-8.894730567932129,0.11013664305210114,,189.29226245117093,
1556798731459,,25.810690523175378,281.650390625,,,,,,,
1556798731467,,,,0.5507151787269821,,,,,,
1556798731468,,,,,,,,,257.89985975816984,45.8332437461468
1556798731480,11.0,,,,,,,,,
1556798731498,,29.98613907614722,,,,,,,,
1556798731509,9.0,,,,1.0989720821380615,-10.221158981323242,0.9648927450180054,,136.74306461780992,
1556798731510,,,,,2.2194926738739014,-9.59385871887207,2.296109437942505,,113.85408984110003,
1556798731528,,,,4.582874529445108,,,,1012.603271484375,102.85183671093591,46.88165753457862
1556798731538,,29.920114423788412,,,,,,,,
1556798731539,,,0.0,,,,,,,
1556798731567,,,,,1.3599480390548706,-10.367210388183594,,,,
1556798731568,,,,,,,0.7541965842247009,,141.28086471744797,
1556798731570,,,,,2.5283541679382324,-10.673677444458008,-0.4357580244541168,,193.55599438017305,
1556798731578,,25.465272757876622,,,,,,,,
1556798731580,9.0,,,,,,,,,
1556798731589,,,,3.7386309899583763,,,,,171.1284908620802,47.212031557942154
1556798731618,,27.21312793757302,0.0,,,,,,,
1556798731627,,,,,,,,1012.604736328125,,
1556798731629,,,,,3.684788942337036,-11.126194953918457,1.5490957498550415,,124.52143830569094,
1556798731648,,,,4.763615819422136,,,,,131.41279864991031,47.66432675730405
1556798731658,,32.33573357663735,,,,,,,,
1556798731682,9.0,,,,,,,,,
1556798731690,8.0,,,,3.196356773376465,-12.845284461975098,0.09816526621580124,,162.60524806098303,
1556798731698,,31.51663035230413,,,,,,,,
1556798731707,,,,3.7747389797891393,,,,,,
1556798731708,,,,,,,,,213.4094555048108,46.93346151566188
1556798731726,,,,,,,,1012.608642578125,,
1556798731738,,30.660096615356863,,,,,,,,
1556798731747,,,107.380859375,,,,,,,
1556798731748,,,,,-6.055120944976807,-9.435836791992188,0.06943397223949432,,358.19021630156595,
1556798731767,,,,5.987686237154497,,,,,,
1556798731768,,,,,,,,,22.316773971444775,46.8383287756158
1556798731778,,30.082797539276388,107.380859375,,,,,,,
1556798731782,8.0,,,,,,,,,
1556798731807,,,,,-1.314456820487976,-16.635421752929688,0.08619388937950134,,15.685336476090242,
1556798731808,,,,,-1.283331274986267,-13.597086906433105,0.7685621976852417,,38.83718986602827,
1556798731818,,35.02224694399625,107.380859375,,,,,,,
1556798731828,,,,4.951743333330653,,,,1012.61865234375,44.38404796269816,45.782986088229706
1556798731858,,39.40324367943545,,,,,,,,
1556798731869,16.0,,,,-0.38787251710891724,-11.849266052246094,-11.126194953918457,,323.3886731618305,
1556798731870,,,,,1.4341706037521362,-8.552350044250488,-0.30407288670539856,,227.73503962848224,
1556798731882,16.0,,,,,,,,,
1556798731888,,,,4.173821041831261,,,,,238.5406994237659,43.93434116076617
1556798731898,,34.62992627389171,,,,,,,,
1556798731905,,,442.6025390625,,,,,,,
1556798731930,,,,,1.6807808876037598,-9.340065956115723,1.9178141355514526,,,
1556798731931,,,,,1.4748733043670654,-9.126976013183594,-2.6432793140411377,1012.6044921875,,
1556798731932,,,,,,,,,166.38100395492276,
1556798731939,,35.16128974712149,442.6025390625,,,,,,,
1556798731948,,,,7.05708686184221,,,,,316.70282296445305,43.36804668817086
1556798731979,,34.90620957472801,442.6025390625,,,,,,,
1556798731982,16.0,,,,,,,,,
1556798731988,,,,,-0.5291347503662109,-6.232297420501709,,,,
1556798731989,,,,,-1.6831752061843872,-5.097411155700684,-1.903448462486267,,337.10422235487675,
1556798731990,,,,,,-4.089421272277832,,,,
1556798732009,,,,6.706850381588636,,,,,,
1556798732010,,,,,,,,,50.61613454256582,44.997358385091395
1556798732020,,26.048264361841195,442.6025390625,,,,,,,
1556798732028,,,,,,,,1012.611328125,,
1556798732049,37.0,,,,,,,,,
1556798732050,,,,,-3.0574889183044434,-3.7326743602752686,-0.021548472344875336,,44.740577007183674,
1556798732051,,,,,,,,,68.42383106737975,
1556798732059,,25.54151836413974,,,,,,,,
1556798732068,,,,6.239555787634401,,,,,,
1556798732069,,,,,,,,,71.82133791527338,43.93905300482912
1556798732082,37.0,,,,,,,,,
1556798732099,,23.302388680390813,0.0,,,,,,,
1556798732108,,,,,-2.164424419403076,-4.9106574058532715,3.4262073040008545,,88.37913714273162,
1556798732109,,,,,-2.573845386505127,-6.907482624053955,6.476513385772705,,,
1556798732128,,,,6.503064533559291,,,,1012.60791015625,,
1556798732129,,,,,,,,,93.44883139379522,44.70491152136074
1556798732139,,24.99569421106498,,,,,,,,
1556798732169,,,,,1.97048819065094,-12.268263816833496,10.144542694091797,,,
1556798732170,,,,,,,6.289760112762451,,124.29198493071351,
1556798732180,,28.21522811815578,,,,,,,,
1556798732181,,,0.0,,,,,,,
1556798732182,37.0,,,,,,,,,
1556798732188,,,,10.484222183591966,,,,,192.25246643745447,
1556798732189,,,,,,,,,,43.87214503859456
1556798732218,,32.68838816386364,,,,,,,,
1556798732229,33.0,,,,0.1771763414144516,-7.647313594818115,4.163643836975098,1012.60791015625,124.3533473502169,
1556798732230,,,,,,,,,59.22183821751253,
1556798732247,,,,6.944786575366631,,,,,28.380499803366206,
1556798732248,,,,,,,,,,44.5963499314627
1556798732258,,33.32308355914602,,,,,,,,
1556798732283,33.0,,,,,,,,,
1556798732289,,,,,-6.495667457580566,-17.708057403564453,-3.0455174446105957,,24.420250254660687,
1556798732298,,38.17292741686755,,,,,,,,
1556798732305,,,270.3369140625,,,,,,,
1556798732308,,,,3.540802854025372,,,,,263.88835788657275,44.3771688742225
1556798732327,,,,,,,,1012.62548828125,,
1556798732339,,37.07950796560057,270.3369140625,,,,,,,
1556798732347,,,,,0.05027977004647255,,,,,
1556798732348,,,,,,-1.9273911714553833,-1.7071179151535034,,331.6916491923839,
1556798732349,,,,,-2.329629421234131,-5.279376029968262,-1.3407938480377197,,,
1556798732368,,,,5.33110325601273,,,,,328.27881198489825,44.00929336667051
1556798732379,,31.069760178934075,270.3369140625,,,,,,,
1556798732383,33.0,,,,,,,,,
1556798732410,17.0,,,,6.059909343719482,,,,,
1556798732411,,,,,,-15.05519962310791,-9.2802095413208,,,
1556798732412,,,,,,,,,310.390734378837,
1556798732413,,,,,4.565882205963135,,,,,
1556798732419,,33.893130752732375,,,,,,,,
1556798732429,,,,4.569046966879075,,,,1012.59912109375,214.92959606686725,43.49706107752101
1556798732459,,33.04125839440583,,,,,,,,
1556798732467,,,,,-1.3407938480377197,,,,,
1556798732468,,,,,,-8.004060745239258,-0.6249057054519653,,16.856281909282416,
1556798732469,,,,,-2.9641122817993164,-7.158881664276123,-0.38547825813293457,,28.056651506511912,
1556798732473,,,99.1552734375,,,,,,,
1556798732483,17.0,,,,,,,,,
1556798732488,,,,,,,,,15.476863734695826,
1556798732489,,,,3.6430497505922874,,,,,,42.09191174929808
1556798732499,,33.076952554855254,99.1552734375,,,,,,,
1556798732529,,,,,0.821236252784729,-7.065505027770996,,,,
1556798732530,,,,,,,-0.3064671754837036,1012.59912109375,241.69709376376886,
1556798732531,,,,,2.1500587463378906,,-1.5682499408721924,,257.36514473861706,
1556798732532,,,,,,-9.23232364654541,,,,
1556798732541,,29.51006373765872,,,,,,,,
1556798732542,,,99.1552734375,,,,,,,
1556798732550,,,,1.192651416914203,,,,,251.27478116893258,42.64527180459283
1556798732581,,29.799069438024695,99.1552734375,,,,,,,
1556798732585,17.0,,,,,,,,,
1556798732591,12.0,,,,0.5913859009742737,,,,,
1556798732592,,,,,,-8.71276569366455,0.3256213665008545,,178.36205734409558,
1556798732593,,,,,1.381496548652649,,,,264.3610274677052,
1556798732598,,,0.0,,,,,,,
1556798732607,,,,0.8784120314579259,,,,,,
1556798732608,,,,,,,,,258.6935823812387,42.20090328300227
1556798732618,,24.034580616863536,,,,,,,,
1556798732627,,,,,,,,1012.577392578125,,
1556798732647,,,,,1.7717633247375488,,,,,
1556798732648,,,,,2.2554068565368652,-10.053560256958008,0.13168510794639587,,201.167912361072,
1556798732658,,28.459809951291323,,,,,,,,
1556798732659,,,0.0,,,,,,,
1556798732668,,,,6.050109471363185,,,,,,
1556798732669,,,,,,,,,85.25224238975392,43.116918764999184
1556798732686,12.0,,,,,,,,,
1556798732699,,25.361037390212317,,,,,,,,
1556798732708,,,,,1.1277034282684326,,,,,
1556798732709,,,,,,-10.060742378234863,1.0175668001174927,,144.40614071559236,
1556798732710,,,,,2.415823221206665,-11.286611557006836,-1.283331274986267,,242.19311576167354,
1556798732729,,,,4.378911259126818,,,,,,
1556798732730,,,,,,,,1012.578369140625,161.50311507613145,42.36055236084802
1556798732740,,30.929627984857643,0.0,,,,,,,
1556798732770,10.0,,,,,,,,,
1556798732771,,,,,4.10139274597168,-10.99450969696045,2.015979290008545,,,
1556798732772,,,,,2.909043788909912,-14.341706275939941,1.0055954456329346,,130.66933255875443,
1556798732780,,31.01570959435339,,,,,,,,
1556798732786,10.0,,,,,,,,,
1556798732791,,,,6.026430091659424,,,,,167.18264959742882,
1556798732792,,,,,,,,,,41.99181110231251
1556798732820,,32.19429176463293,,,,,,,,
1556798732829,,,,,3.1412885189056396,-12.804581642150879,0.9840469360351562,,,
1556798732830,,,,,3.340013265609741,-14.037632942199707,,1012.578369140625,158.2152259342274,
1556798732831,,,,,,-11.81335163116455,0.2705530524253845,,181.2582251191867,
1556798732832,,,,,,,,,326.81890003094304,
1556798732848,,,,2.9805492225272365,,,,,332.8489581528982,42.0394960994175
1556798732859,,36.28566272748777,0.0,,,,,,,
1556798732886,10.0,,,,,,,,,
1556798732888,,,,,-7.101418972015381,-10.072713851928711,1.4365649223327637,,12.211573127434406,
1556798732889,,,,,-3.4309957027435303,-13.984959602355957,0.21069619059562683,,11.043064364228599,
1556798732899,,37.688922364573145,,,,,,,,
1556798732908,,,,7.002934249601951,,,,,21.486573015566194,43.410611432560245
1556798732927,,,,,,,,1012.593505859375,,
1556798732940,,36.900328548015715,,,,,,,,
1556798732949,11.0,,,,,,,,,
1556798732950,,,,,-1.6305011510849,-14.011296272277832,-0.32801565527915955,,18.376277329818947,
1556798732951,,,,,,-13.496526718139648,3.466909885406494,,80.31126988378833,
1556798732955,,,98.7060546875,,,,,,,
1556798732968,,,,15.457653157504062,,,,,335.2270541445255,42.873137611267104
1556798732979,,47.05726774179875,98.7060546875,,,,,,,
1556798732986,11.0,,,,,,,,,
1556798733007,,,,,1.7741576433181763,,,,,
1556798733008,,,,,,-10.616214752197266,-3.754222869873047,,307.4701181689829,
1556798733009,,,,,1.2689656019210815,-8.734314918518066,2.6193366050720215,,142.38588004212932,
1556798733019,,38.855049083303896,,,,,,,,
1556798733020,,,98.7060546875,,,,,,,
1556798733028,,,,1.4952080796792417,,,,,,
1556798733029,,,,,,,,1012.584228515625,154.15545711422018,42.50545698088295
1556798733033,,,62.36653645833333,,,,,,,
1556798733059,,35.462844278125054,62.36653645833333,,,,,,,
1556798733067,,,,,1.5251530408859253,-9.143735885620117,-1.8962656259536743,,,
1556798733068,,,,,0.5985686779022217,-7.88195276260376,-3.8284454345703125,,293.4940040892898,
1556798733086,11.0,,,,,,,,,
1556798733088,,,,7.111092362114244,,,,,331.67023825688324,43.25334060775505
1556798733099,,36.044441474977354,62.36653645833333,,,,,,,
1556798733129,33.0,,,,-0.9553156495094299,,,,,
1556798733130,,,,,,-5.035160064697266,-1.0893950462341309,1012.584228515625,4.7099934374822965,
1556798733131,,,,,-1.9130256175994873,-3.9433705806732178,0.04788549616932869,,42.56899690775356,
1556798733139,,27.398467087615025,,,,,,,,
1556798733149,,,,7.392545873856334,,,,,46.367545142953645,43.20474818955019
1556798733180,,24.06166376899527,,,,,,,,
1556798733186,33.0,,,,,,,,,
1556798733190,,,,,-3.562680959701538,,,,,
1556798733191,,,,,,-3.66084623336792,0.42857518792152405,,,
1556798733192,,,,,,,,,47.26125490528227,
1556798733208,,,,4.972638414085747,,,,,83.24325152842141,
1556798733209,,,,,,,,,,43.55210559874635
1556798733219,,23.44717446111686,0.0,,,,,,,
1556798733228,,,,,,,,1012.61279296875,,
1556798733248,,,,,-1.8292258977890015,-7.292961120605469,,,,
1556798733249,,,,,,,6.007235527038574,,90.58066420657764,
1556798733250,,,,,-0.5698373913764954,-10.1636962890625,8.865999221801758,,101.42307041959594,
1556798733259,,25.67231816729538,,,,,,,,
1556798733269,,,,10.634972772603767,,,,,91.24248221639516,40.35404675386911
1556798733286,33.0,,,,,,,,,
1556798733298,,26.224290263460148,,,,,,,,
1556798733299,,,0.0,,,,,,,
1556798733310,30.0,,,,5.061496734619141,-16.146989822387695,9.850046157836914,,146.90687787640914,
1556798733328,,,,3.1098561897023282,,,,1012.616455078125,90.33471592475462,
1556798733329,,,,,,,,,,42.48046511584038
1556798733338,,33.23431945863937,,,,,,,,
1556798733367,,,,,-3.414235830307007,-4.745452880859375,5.815693378448486,,,
1556798733368,,,,,,,,,56.88347172873989,
1556798733378,,30.63621169200657,,,,,,,,
1556798733386,30.0,,,,,,,,,
1556798733387,,,,7.346800345135241,,,,,43.105457040639294,42.020608483928704
1556798733418,,34.42811876954872,0.0,,,,,,,
1556798733427,,,,,1.563461422920227,-23.257986068725586,-0.4022381603717804,,,
1556798733428,,,,,,,-2.8731298446655273,1012.616455078125,248.51818512180716,
1556798733447,,,,10.874410679075327,,,,,347.95075827102204,42.62897414657013
1556798733458,,36.36079571857631,,,,,,,,
1556798733486,30.0,,,,,,,,,
1556798733489,19.0,,,,-4.6640472412109375,-2.504411458969116,-2.169213056564331,,14.244631867854764,
1556798733498,,30.370366966991025,,,,,,,,
1556798733503,,,41.1376953125,,,,,,,
1556798733507,,,,9.487847033600817,,,,,296.66603273230294,41.890571676958096
1556798733527,,,,,,,,1012.625244140625,,
1556798733539,,32.467592163729634,41.1376953125,,,,,,,
1556798733547,,,,,9.622590065002441,,,,,
1556798733548,,,,,,-17.02568817138672,-5.365570068359375,,289.43900957151243,
1556798733549,,,,,7.956175327301025,-11.825323104858398,0.21069619059562683,,,
1556798733550,,,,,,,,,269.9375285853729,
1556798733568,,,,,,,,,336.30534293898455,42.32207753142479
1556798733570,,,,1.3878159171949036,,,,,,
1556798733579,,39.18785788818722,41.1376953125,,,,,,,
1556798733585,,,57.63788132440476,,,,,,,
1556798733586,19.0,,57.63788132440476,,,,,,,
1556798733607,,,,,-4.750241279602051,-7.31211519241333,-0.2944957911968231,,,
1556798733608,,,,,,,,,18.469673336529695,
1556798733609,,,,,-2.849187135696411,-7.008042335510254,0.6273000240325928,,31.37726066963495,
1556798733618,,31.982757791131867,,,,,,,,
1556798733619,,,57.63788132440476,,,,,,,
1556798733627,,,,,,,,,98.88126333129992,41.939053796510024
1556798733628,,,,2.78943202031187,,,,1012.596435546875,,
1556798733659,,29.48083466897331,57.63788132440476,,,,,,,
1556798733669,10.0,,,,,,,,,
1556798733670,,,,,1.0965778827667236,,,,,
1556798733671,,,40.8544921875,,,-7.723930358886719,-0.8954587578773499,,256.6315824217577,
1556798733686,10.0,,,,,,,,,
1556798733688,,,,1.079253504486085,,,,,254.58340676515684,42.11012478572831
1556798733700,,21.407612937369596,40.8544921875,,,,,,,
1556798733728,,,,,,,,1012.596435546875,,
1556798733730,,,,,1.8890827894210815,,,,,
1556798733731,,,,,,-9.25147819519043,-0.6488484740257263,,229.0992742925439,
1556798733739,,25.512888324157398,40.8544921875,,,,,,,
1556798733748,,,,,,,,,202.17944971677264,42.15515426866327
1556798733750,,,,2.041540518256521,,,,,,
1556798733780,,25.855240331281596,40.8544921875,,,,,,,
1556798733781,,,0.0,,,,,,,
1556798733786,10.0,,,,,,,,,
1556798733788,,,,,1.35037100315094,,,,,
1556798733789,,,,,,-8.949799537658691,1.671203851699829,,122.31213165638025,
1556798733791,,,,,0.9624984860420227,,,,,
1556798733792,,,,,1.1755889654159546,-9.680052757263184,3.476486921310425,,83.78781568075732,
1556798733810,,,,3.294146669885062,,,,,130.34622362987778,42.49736863852326
1556798733820,,23.327795687513486,,,,,,,,
1556798733829,,,,,,,,1012.60546875,,
1556798733852,9.0,,,,2.7773587703704834,-11.633781433105469,,,,
1556798733853,,,,,,,-0.8667274713516235,,213.16270809085495,
1556798733860,,24.51346012510222,,,,,,,,
1556798733861,,,0.0,,,,,,,
1556798733871,,,,4.764641732259834,,,,,151.0260966629521,43.328516013422664
1556798733886,9.0,,,,,,,,,
1556798733900,,30.86869082543624,,,,,,,,
1556798733910,,,,,2.602576732635498,-11.054367065429688,0.9385557174682617,,141.60226609903208,
1556798733911,,,,,,,,,112.55278170986168,
1556798733912,,,,,1.953728199005127,,,,,
1556798733913,,,,,,-12.35206413269043,1.0415095090866089,,137.00128674957142,
1556798733930,,,,4.342041997129229,,,,1012.62451171875,132.9897663858612,43.58635298693728
1556798733940,,33.18997647509292,,,,,,,,
1556798733941,,,0.0,,,,,,,
1556798733970,,,,,3.7087316513061523,-11.810957908630371,,,,
1556798733971,,,,,,,1.0606637001037598,,132.3684377374435,
1556798733972,,,,,-2.9904491901397705,,,,,
1556798733973,,,,,,-11.238725662231445,0.5267404317855835,,3.6264637534957274,
1556798733980,,31.23398436020233,,,,,,,,
1556798733987,9.0,,,,,,,,,
1556798733990,,,,3.5281040728263457,,,,,8.634875412891859,43.6411217204441
1556798734020,,34.9788524253635,,,,,,,,
1556798734031,,,,,-5.226701736450195,-11.099858283996582,,,,
1556798734032,,,,,,,1.3479766845703125,1012.62451171875,9.767024517824723,
1556798734034,,,,,-2.8013014793395996,,,,,
1556798734035,,,,,-1.80049467086792,,,,,
1556798734036,,,,,,-14.109461784362793,-0.26337021589279175,,358.114112412843,
1556798734050,,,,6.53431359676808,,,,,28.20467024356259,
1556798734051,,,,,,,,,,43.95408341159522
1556798734060,,35.21009181047236,,,,,,,,
1556798734074,,,70.3662109375,,,,,,,
1556798734088,9.0,,,,-1.5251530408859253,-13.2858304977417,-0.4381522834300995,,7.4288783026528336,
1556798734090,,,,,-0.8978530764579773,,,,,
1556798734091,,,,,,-12.584308624267578,-0.4860377907752991,,356.8946636719204,
1556798734100,,36.009151369664295,70.3662109375,,,,,,,
1556798734108,,,,10.703445407498867,,,,,,
1556798734109,,,,,,,,,326.04812342839085,44.05626204322442
1556798734127,,,,,,,,1012.62255859375,,
1556798734140,,41.56093943173094,70.3662109375,,,,,,,
1556798734149,,,,,1.3240339756011963,-10.570723533630371,-1.97048819065094,,289.81571499480617,
1556798734151,,,,,0.7182824611663818,,0.2968900799751282,,197.17755192341053,
1556798734152,,,,,,-8.288979530334473,1.5179702043533325,,,
1556798734157,,,93.44883219401041,,,,,,,
1556798734168,,,,2.146043143771056,,,,,,
1556798734169,,,,,,,,,165.44478992538913,44.064597772225305
1556798734179,,30.590178751720572,93.44883219401041,,,,,,,
1556798734188,9.0,,,,,,,,,
1556798734209,17.0,,,,,,,,,
1556798734210,,,,,0.9265843629837036,-8.815719604492188,-1.8411973714828491,,300.0135221049045,
1556798734211,,,,,,,,,323.5187302089113,
1556798734212,,,,,-0.49322059750556946,-6.373559474945068,-2.3631491661071777,,334.62531618619465,
1556798734219,,36.28869938562401,,,,,,,,
1556798734220,,,93.44883219401041,,,,,,,
1556798734228,,,,6.512193540073048,,,,1012.614501953125,,
1556798734229,,,,,,,,,339.7703952351277,44.224272628435195
1556798734259,,28.70961310210123,,,,,,,,
1556798734268,,,,,-1.3647366762161255,-4.994457244873047,-0.6799740195274353,,21.205032617978247,
1556798734270,,,,,-2.267378330230713,,,,,
1556798734271,,,,,,-3.7374629974365234,0.3184385597705841,,43.77658801339015,
1556798734288,,,,6.95921843908919,,,,,51.31381104552594,
1556798734289,17.0,,,,,,,,,43.37530883264013
1556798734299,,24.3481955608568,,,,,,,,
1556798734328,,,,,-2.6863763332366943,-4.336031913757324,0.5985686779022217,1012.614501953125,,
1556798734329,,,,,,,,,52.412477709373775,
1556798734330,,,,,-1.7262721061706543,-4.71193265914917,,,,
1556798734331,,,,,,,0.9457385540008545,,69.38259155136359,
1556798734339,,24.015197158558816,,,,,,,,
1556798734340,,,0.0,,,,,,,
1556798734348,,,,4.62619250620769,,,,,,
1556798734349,,,,,,,,,85.7869574093067,43.883016240472514
1556798734379,,25.78417639599563,,,,,,,,
1556798734389,17.0,,,,,,,,,
1556798734390,30.0,,,,-1.7957061529159546,-7.151699066162109,6.009629726409912,,85.82297982698935,
1556798734392,,,,,-2.3200523853302,-9.026415824890137,8.358413696289062,,,
1556798734393,,,,,,,,,83.10435280145998,
1556798734409,,,,10.085954898077558,,,,,86.02727078506445,45.812857931406796
1556798734420,,30.75905146522284,0.0,,,,,,,
1556798734428,,,,,,,,1012.613525390625,,
1556798734448,,,,,7.122967720031738,,,,,
1556798734449,,,,,5.734288215637207,-19.31700897216797,12.955421447753906,,145.00615917379966,
1556798734451,,,,,0.1604164093732834,-9.25387191772461,3.3639562129974365,,,
1556798734452,,,,,,,,,128.03716889792827,
1556798734460,,30.797069722412186,,,,,,,,
1556798734469,,,,1.4302808853866065,,,,,,
1556798734470,,,,,,,,,128.30608710593,45.88572155876765
1556798734490,30.0,,,,,,,,,
1556798734501,,32.860458596895285,,,,,,,,
1556798734502,,,0.0,,,,,,,
1556798734509,,,,,-1.381496548652649,,,,,
1556798734510,,,,,,-4.8843207359313965,8.427846908569336,,56.81540889366073,
1556798734512,,,,,-2.0614705085754395,-9.830892562866211,,,,
1556798734513,,,,,,,-0.6632141470909119,,29.504911157743095,
1556798734529,,,,,,,,,13.35735016730871,
1556798734530,,,,,,,,,,45.75156271985249
1556798734531,,,,11.878369305112248,,,,,,
1556798734532,,,,,,,,1012.62109375,,
1556798734540,,32.90457740653975,,,,,,,,
1556798734571,25.0,,,,-1.0008069276809692,,,,,
1556798734572,,,,,,-13.199637413024902,-0.8858816623687744,,8.562648723739926,
1556798734574,,,,,-0.3232271075248718,-4.113364219665527,,,,
1556798734575,,,,,,,-5.265010356903076,,334.8325133897616,
1556798734580,,35.257998700087306,,,,,,,,
1556798734589,,,,,,,,,25.673320174885816,
1556798734590,25.0,,,,,,,,,46.16437593011618
1556798734592,,,,8.573376506896446,,,,,,
1556798734620,,32.01990846824328,,,,,,,,
1556798734629,,,,,,,,1012.62109375,,
1556798734631,,,,,-3.131711483001709,,,,,
1556798734632,,,,,6.361588001251221,-5.432609558105469,,,,
1556798734633,,,,,,,-0.2729473412036896,,32.57531341609558,
1556798734642,,,243.7646484375,,,,,,,
1556798734650,,,,11.445070523252644,,,,,,
1556798734651,,,,,,,,,302.41957918344656,46.40677137994282
1556798734660,,32.651259972157646,243.7646484375,,,,,,,
1556798734690,25.0,,,,9.217958450317383,-14.2842435836792,-2.047105073928833,,282.4568418622777,
1556798734692,,,,,3.4836697578430176,,,,,
1556798734693,,,,,,-10.73114013671875,3.407052993774414,,186.87803646638156,
1556798734700,,39.119962604699744,243.7646484375,,,,,,,
1556798734709,,,,4.604198795166229,,,,,,
1556798734710,,,,,,,,,29.85846223975045,45.69676489309662
1556798734717,,,144.3408203125,,,,,,,
1556798734718,,,144.3408203125,,,,,,,
1556798734729,,,,,,,,1012.620361328125,,
1556798734740,,31.01954073027403,144.3408203125,,,,,,,
1556798734751,12.0,,,,-3.9170336723327637,,,,,
1556798734752,,,,,,-7.393520832061768,-1.2809370756149292,,15.19251271426441,
1556798734754,,,,,0.1364736706018448,-7.721536159515381,,,,
1556798734755,,,,,,,0.8092648983001709,,134.7578291544107,
1556798734769,,,,2.627976682562423,,,,,125.07509343981218,45.63618141625354
1556798734780,,33.59849350952719,144.3408203125,,,,,,,
1556798734791,12.0,,,,,,,,,
1556798734812,,,,,0.38547825813293457,-7.810124397277832,,,,
1556798734813,,,,,,,-2.0016138553619385,,305.5065548958201,
1556798734815,,,,,1.101366400718689,-8.961771011352539,,,,
1556798734816,,,,,,,-2.286532402038574,,294.2565742195542,
1556798734821,,32.253567603056425,,,,,,,,
1556798734831,,,,2.0405747224885156,,,,1012.6103515625,222.43751758746362,45.7249200906947
1556798734860,,26.580898484927125,,,,,,,,
1556798734871,,,,,1.5658557415008545,-8.729525566101074,,,,
1556798734872,,,,,,,-0.9720755815505981,,255.07380751737458,
1556798734891,,,,2.326684083445304,,,,,206.6038823365668,45.52133767855923
1556798734892,12.0,,,,,,,,,
1556798734900,,23.997266852992997,,,,,,,,
1556798734901,,,0.0,,,,,,,
1556798734932,10.0,,,,1.381496548652649,,,,,
1556798734933,,,,,,-9.488511085510254,2.9042553901672363,,,
1556798734934,,,,,,,,1012.62109375,104.96970761782762,
1556798734935,,,,,0.4142095446586609,-11.28421688079834,,,,
1556798734936,,,,,,,0.9074301719665527,,129.42677088456736,
1556798734940,,26.801298708432086,,,,,,,,
1556798734951,,,,3.423511549245865,,,,,119.36830646372641,
1556798734952,,,,,,,,,,45.40683858311515
1556798734980,,24.80661891711914,,,,,,,,
1556798734981,,,0.0,,,,,,,
1556798734990,,,,,2.296109437942505,,,,,
1556798734991,,,,,4.185192584991455,-10.625791549682617,0.004788549616932869,,199.1527333483515,
1556798734992,10.0,,,,,,,,,
1556798735011,,,,5.29209175304819,,,,,211.37623113230313,45.534029971742356
1556798735020,,25.101603444241377,,,,,,,,
1556798735029,,,,,,,,1012.619873046875,,
1556798735050,,,,,3.347196102142334,-11.135771751403809,,,,
1556798735051,,,,,,,0.39505535364151,,184.5522750917221,
1556798735053,,,,,1.75021493434906,-12.155733108520508,0.8667274713516235,,,
1556798735054,,,,,,,,,155.23263258784456,
1556798735060,,33.992306321535324,,,,,,,,
1556798735061,,,0.0,,,,,,,
1556798735070,,,,4.182032189528547,,,,,152.79738328078986,
1556798735071,,,,,,,,,,45.753410809381094
1556798735093,10.0,,,,,,,,,
1556798735099,,29.001165221047806,,,,,,,,
1556798735112,,,,,3.622537851333618,-13.484556198120117,0.0766167938709259,,,
1556798735113,,,,,,,,,193.8626698739066,
1556798735114,,,,,-4.860377788543701,,,,,
1556798735115,,,,,,-9.799766540527344,,,,
1556798735116,,,,,,,0.2897072434425354,,6.239525082760622,
1556798735130,,,,4.840803468392876,,,,,,
1556798735131,,,,,,,,1012.628662109375,12.485018043308571,45.058122378823036
1556798735140,,34.38218806637602,,,,,,,,
1556798735170,,,,,-5.0998053550720215,,,,,
1556798735171,,,,,,-11.09267520904541,1.7861289978027344,,21.363771336931222,
1556798735180,,36.29580228658761,,,,,,,,
1556798735192,,,,7.158268140052633,,,,,74.1998761616494,46.609341841910144
1556798735193,10.0,,,,,,,,,
1556798735195,,,47.6767578125,,,,,,,
1556798735196,,,47.6767578125,,,,,,,
1556798735219,,37.244466886001575,47.6767578125,,,,,,,
1556798735229,,,,,-0.7230709791183472,,,,,
1556798735230,,,,,,-13.666521072387695,-0.39984390139579773,1012.628662109375,11.719918181730293,
1556798735231,,,,,-1.7382434606552124,,,,,
1556798735232,,,,,-1.101366400718689,-13.422304153442383,1.2330515384674072,,64.24934922026216,
1556798735250,,,,14.506618173275097,,,,,336.64960154862615,46.6036251585049
1556798735259,,44.56562611855935,47.6767578125,,,,,,,
1556798735268,,,42.4609375,,,,,,,
1556798735290,18.0,,,,1.3288224935531616,,,,,
1556798735291,,,,,,-10.151724815368652,-2.5594797134399414,,305.0021146897634,
1556798735292,,,,,0.41181525588035583,,,,,
1556798735293,18.0,,,,,-8.487704277038574,-0.17957061529159546,,254.72638311505267,
1556798735299,,34.82083004013734,42.4609375,,,,,,,
1556798735310,,,,2.0756615974303516,,,,,,
1556798735311,,,,,,,,,177.47884558252122,
1556798735312,,,,,,,,,,46.59856528903505
1556798735329,,,,,,,,1012.61328125,,
1556798735340,,35.65274158297457,42.4609375,,,,,,,
1556798735351,,,,,1.6185297966003418,,,,,
1556798735352,,,,,0.766167938709259,-9.076695442199707,-1.2881197929382324,,283.2637535806339,
1556798735353,,,,,0.004788549616932869,,,,,
1556798735354,,,,,,-6.399896621704102,-2.197944164276123,,330.28914839349727,
1556798735371,,,,6.312175780175484,,,,,334.40173848145076,46.68736288150127
1556798735379,,34.49310531836424,,,,,,,,
1556798735393,18.0,,,,,,,,,
1556798735410,,,,,-1.0271438360214233,,,,,
1556798735411,,,,,,-5.396695613861084,-0.924190104007721,,14.821460980056202,
1556798735413,,,,,-2.8348214626312256,-3.99125599861145,0.0,,,
1556798735414,,,,,,,,,44.382405302202756,
1556798735420,,26.010037465565993,,,,,,,,
1556798735430,,,,7.018058371839527,,,,,,
1556798735431,,,,,,,,1012.606689453125,50.45125377600169,
1556798735432,,,,,,,,,,46.243459225654675
1556798735460,,24.59101739230374,,,,,,,,
1556798735472,34.0,,592.0068359375,,,,,,,
1556798735473,,,,,-3.076643228530884,-3.8045027256011963,0.10534809529781342,,51.06328312186446,
1556798735489,,,,5.6023224510646585,,,,,,
1556798735490,,,,,,,,,83.86703904494033,46.19415421100669
1556798735495,34.0,,,,,,,,,
1556798735499,,25.772768112724734,592.0068359375,,,,,,,
1556798735531,,,,,-1.9752767086029053,-6.533976078033447,,,,
1556798735532,,,,,,,5.3152899742126465,1012.60546875,96.40805183283828,
1556798735540,,25.61173072953542,592.0068359375,,,,,,,
1556798735541,,,0.0,,,,,,,
1556798735551,,,,11.975050739348077,,,,,107.26407061287244,45.64773651544803
1556798735580,,25.420918552309274,,,,,,,,
1556798735590,,,,,5.894704341888428,,,,,
1556798735591,,,,,4.434196949005127,-17.46144676208496,10.723957061767578,,178.8015800171859,
1556798735593,,,,,-0.026337023824453354,,,,,
1556798735594,,,,,,-7.965752124786377,2.015979290008545,,142.23162704991375,
1556798735595,34.0,,,,,,,,,
1556798735610,,,,1.7900591077582295,,,,,,
1556798735611,,,,,,,,,140.43851114748864,45.68738933275757
1556798735620,,35.516827178500556,0.0,,,,,,,
1556798735629,,,,,,,,1012.618896484375,,
1556798735651,31.0,,,,-3.04072904586792,-6.1820173263549805,4.992063045501709,,73.87645304407096,
1556798735653,,,,,-4.364762783050537,-20.485414505004883,-2.288926601409912,,27.540574365656823,
1556798735659,,31.63186569029335,,,,,,,,
1556798735669,,,,12.840337518076579,,,,,27.376776184076164,
1556798735670,,,,,,,,,,44.98759626059747
1556798735695,31.0,,,,,,,,,
1556798735700,,36.06527170695428,,,,,,,,
1556798735711,,,,,-0.4908263385295868,,,,,
1556798735712,,,,,,-15.3449068069458,-1.2378400564193726,,352.1165538250626,
1556798735731,,,,7.974152532530372,,,,1012.6142578125,,
1556798735732,,,,,,,,,25.072902150612094,46.001729354494145
1556798735740,,33.465429051424834,,,,,,,,
1556798735756,,,166.93318684895831,,,,,,,
1556798735768,,,,,-1.8388030529022217,-6.052726745605469,-2.3032922744750977,,,
1556798735769,,,,,,,,,5.357906462810206,
1556798735770,,,,,2.607365369796753,,,,,
1556798735771,,,,,,-11.787014961242676,-5.767807960510254,,318.1463151436435,
1556798735779,,31.951883872046203,166.93318684895831,,,,,,,
1556798735789,,,,10.659774779039365,,,,,,
1556798735790,,,,,,,,,306.14772524377673,45.38082780714286
1556798735795,31.0,,,,,,,,,
1556798735819,,34.41084329462428,166.93318684895831,,,,,,,
1556798735833,16.0,,,,8.04236888885498,-13.64497184753418,-1.9106312990188599,,,
1556798735834,,,,,,,-0.1771763414144516,1012.62060546875,283.11544285299624,
1556798735850,,,,4.097239863183502,,,,,,
1556798735851,,,,,,,,,34.294629124538744,45.75124850631374
1556798735859,,33.26657425983043,,,,,,,,
1556798735888,,,,,-3.1221344470977783,,,,,
1556798735889,,,,,-1.0271438360214233,-7.089447498321533,-2.5211713314056396,,7.207238664085878,
1556798735891,,,,,0.5435003638267517,-7.594639778137207,0.6392713785171509,,179.63338777506672,
1556798735895,16.0,,,,,,,,,
1556798735899,,30.726607986878484,,,,,,,,
1556798735907,,,559.86328125,,,,,,,
1556798735908,,,559.86328125,,,,,,,
1556798735909,,,,2.6559667997295953,,,,,,
1556798735910,,,,,,,,,168.51979573124223,45.34769705890413
1556798735928,,,,,,,,1012.590087890625,,
1556798735938,,32.41195816509957,,,,,,,,
1556798735939,,,559.86328125,,,,,,,
1556798735948,,,,,0.6632141470909119,,,,,
1556798735949,,,,,,-8.344047546386719,-0.6967339515686035,,274.3760382250465,
1556798735950,,,,,1.1636176109313965,,,,,
1556798735951,,,,,1.022355318069458,-9.385557174682617,-1.0941835641860962,,275.1082618248285,
1556798735969,,,,1.3958201716167844,,,,,243.1811982477642,45.8051545376103
1556798735979,,29.855954959218074,559.86328125,,,,,,,
1556798735995,16.0,,,,,,,,,
1556798736013,9.0,,,,1.4365649223327637,-9.16288948059082,-1.4605076313018799,,276.5814584967194,
1556798736014,,,,,1.9561225175857544,-10.1852445602417,0.4740664064884186,,,
1556798736015,,,,,,,,,207.34565454080848,
1556798736020,,25.295855831220795,559.86328125,,,,,,,
1556798736021,,,0.0,,,,,,,
1556798736030,,,,2.9757963380959382,,,,,,
1556798736031,,,,,,,,1012.592529296875,,
1556798736032,,,,,,,,,199.36317147667955,45.17984036765706
1556798736060,,25.0790633184895,,,,,,,,
1556798736070,,,,,2.2099156379699707,-9.605830192565918,,,,
1556798736071,,,,,,-9.778218269348145,2.391880512237549,,139.43488315084696,
1556798736073,,,,,0.8882759809494019,-11.047183990478516,1.5538843870162964,,136.87227813652822,
1556798736089,,,,3.9879987207485277,,,,,132.40077185297432,45.72165245694382
1556798736096,9.0,,,,,,,,,
1556798736099,,24.040605076521302,0.0,,,,,,,
1556798736129,,,,,1.9920365810394287,-10.11102294921875,-0.3256213665008545,1012.5966796875,229.54819530593215,
1556798736131,,,,,4.039141654968262,-10.1852445602417,,,,
1556798736132,,,,,,,0.21548473834991455,,237.95267477774115,
1556798736139,,26.10172923353859,,,,,,,,
1556798736149,,,,6.159108074564849,,,,,,
1556798736150,,,,,,,,,235.06902355167512,45.30043453730666
1556798736178,,29.458527865563173,,,,,,,,
1556798736179,,,0.0,,,,,,,
1556798736191,,,,,3.0574889183044434,-12.862044334411621,0.67518550157547,,191.38762788474742,
1556798736192,,,,,,-12.943449974060059,0.3974496126174927,,,
1556798736196,9.0,,,,,,,,,
1556798736209,,,,5.4816413000271265,,,,,,
1556798736210,,,,,,,,,189.41378517688372,45.37150379453284
1556798736218,,33.094499463914325,,,,,,,,
1556798736228,,,,,,,,1012.5986328125,,
1556798736249,,,,,2.906649589538574,-15.239559173583984,0.2178790122270584,,197.8397251030649,
1556798736258,,32.60032562610729,,,,,,,,
1556798736269,,,,6.142695808193027,,,,,23.371942575563367,45.8423163910737
1556798736298,9.0,29.448887101127642,,,,,,,,
1556798736302,,,217.75390625,,,,,,,
1556798736309,,,,,-2.4613144397735596,-13.702434539794922,-0.4309694766998291,,17.093246784799533,
1556798736329,,,,5.082495490061367,,,,1012.602783203125,50.18545696445068,45.027470358104495
1556798736338,,30.5460610709572,217.75390625,,,,,,,
1556798736370,15.0,,,,,,,,,
1556798736371,,,,,-1.4988160133361816,-13.532441139221191,2.1237218379974365,,85.51685757857854,
1556798736379,,42.27025277186365,217.75390625,,,,,,,
1556798736389,,,,7.908056723684999,,,,,312.36917380401206,44.50936342125701
1556798736399,15.0,,,,,,,,,
1556798736418,,42.718506249508735,,,,,,,,
1556798736429,,,,,0.8068706393241882,-8.47333812713623,,,,
1556798736430,,,,,,,-0.7925049662590027,1012.607177734375,281.1367233900652,
1556798736431,,,,,1.1516461372375488,,,,,
1556798736432,,,,,,-8.257853507995605,-1.1157320737838745,,283.9623180081861,
1556798736450,,,,4.804355020572094,,,,,288.1588135549986,44.49310432834316
1556798736459,,34.4659017228271,,,,,,,,
1556798736472,,,45.7373046875,,,,,,,
1556798736473,,,45.7373046875,,,,,,,
1556798736489,,,,,0.19633053243160248,,,,,
1556798736490,,,,,,-6.826077461242676,-2.7414445877075195,,328.98903554536366,
1556798736492,,,,,-1.6305011510849,-5.018400192260742,-1.039115309715271,,18.82830437173226,
1556798736499,15.0,34.88401372921231,45.7373046875,,,,,,,
1556798736508,,,,6.519896646160223,,,,,,
1556798736509,,,,,,,,,26.124411480882827,44.46048610261928
1556798736528,,,,,,,,1012.60009765625,,
1556798736539,,29.34823254764858,45.7373046875,,,,,,,
1556798736551,32.0,,,,-2.3152637481689453,-4.72150993347168,,,,
1556798736552,,,,,,,-1.0965778827667236,,31.146062181324567,
1556798736553,,,,,-2.6456737518310547,-4.611373424530029,-0.7613793611526489,,,
1556798736554,,,,,,,,,38.189950894994126,
1556798736569,,,,6.595739850819429,,,,,,
1556798736570,,,,,,,,,53.610673889807,44.83955192342048
1556798736579,,25.542171231347833,,,,,,,,
1556798736600,32.0,,,,,,,,,
1556798736609,,,,,-2.5307483673095703,,,,,
1556798736610,,,,,-1.9417568445205688,-5.0686798095703125,0.5818088054656982,,65.01252040717355,
1556798736612,,,,,-1.903448462486267,-6.6776323318481445,,,,
1556798736613,,,,,,,5.727105140686035,,100.19388908599296,
1556798736620,,26.920971892908344,,,,,,,,
1556798736630,,,,,,,,,97.70996785091273,
1556798736631,,,,,,,,,,43.864594945042974
1556798736632,,,,4.465693141879182,,,,,,
1556798736633,,,,,,,,1012.607177734375,,
1556798736660,,26.915976509492097,,,,,,,,
1556798736661,,,0.0,,,,,,,
1556798736670,,,,,-1.9848538637161255,,,,,
1556798736671,,,,,-0.1604164093732834,,,,91.37377211262117,
1556798736672,,,,,,-8.344047546386719,9.452596664428711,,,
1556798736691,,,,12.853741622813752,,,,,,
1556798736692,,,,,,,,,131.32272211513617,44.412240345722786
1556798736700,32.0,30.084014777690875,,,,,,,,
1556798736731,29.0,,,,,,,,,
1556798736732,,,,,4.527573585510254,-18.56520652770996,6.023995399475098,1012.607177734375,191.93743079217677,
1556798736735,,,,,-1.3168511390686035,-9.933846473693848,0.35674694180488586,,,
1556798736736,,,,,,,,,70.22383180048826,
1556798736741,,30.641104128937158,0.0,,,,,,,
1556798736750,,,,6.807273609825261,,,,,67.09185538676803,43.93397282184673
1556798736780,,30.035860557580026,,,,,,,,
1556798736789,,,,,-2.9952378273010254,,,,,
1556798736790,,,,,-1.7310607433319092,-8.82290267944336,3.349590539932251,,83.60658344132025,
1556798736792,,,,,-1.2761484384536743,-17.07836151123047,,,,
1556798736793,,,,,,,-2.6265194416046143,,356.96746217597195,
1556798736801,29.0,,,,,,,,,
1556798736810,,,,9.132555616174452,,,,,357.2343018720319,
1556798736811,,,,,,,,,,44.89932543656093
1556798736820,,34.425161196234654,,,,,,,,
1556798736828,,,,,,,,1012.607421875,,
1556798736832,,,407.568359375,,,,,,,
1556798736850,,,,,2.9329867362976074,-4.470110893249512,,,,
1556798736851,,,,,,-3.94097638130188,-3.0814316272735596,,310.00707923806283,
1556798736852,,,,,-3.9529476165771484,,,,,
1556798736853,,,,,,-5.233884811401367,-1.333611011505127,,31.31416338208237,
1556798736860,,34.286652669389376,407.568359375,,,,,,,
1556798736870,,,,7.039990227432404,,,,,28.100337396443308,44.354773531642984
1556798736900,,29.967538323673672,407.568359375,,,,,,,
1556798736901,29.0,,,,,,,,,
1556798736912,20.0,,,,-0.13886794447898865,-9.938634872436523,-1.2785427570343018,,336.1580345416076,
1556798736914,,,,,4.838829517364502,,,,,
1556798736915,,,,,9.13415813446045,-14.12143325805664,-3.9170336723327637,,295.1952744379457,
1556798736930,,,,12.909728978368285,,,,,,
1556798736931,,,,,,,,1012.618896484375,304.60339556677474,44.727856306648654
1556798736940,,38.49930175837908,,,,,,,,
1556798736941,,,407.568359375,,,,,,,
1556798736952,,,320.263671875,,,,,,,
1556798736953,,,320.263671875,,,,,,,
1556798736969,,,,,5.262616157531738,,,,,
1556798736970,,,,,,-11.741523742675781,,,,
1556798736971,,,,,,-9.842864036560059,1.3719195127487183,,246.13563072419913,
1556798736972,,,,,-4.563488006591797,-7.7023820877075195,-1.2067145109176636,,,
1556798736973,,,,,,,,,27.905639439057552,
1556798736980,,34.51542256111127,,,,,,,,
1556798736981,,,320.263671875,,,,,,,
1556798736990,,,,5.899230337857776,,,,,21.026993491978146,44.09591664463773
1556798737001,20.0,,,,,,,,,
1556798737020,,31.47327300341477,320.263671875,,,,,,,
1556798737029,,,,,-2.597788095474243,,,,,
1556798737031,,,,,,-7.010436534881592,-0.5458946824073792,,25.183803932165574,
1556798737032,,,,,,-7.709564685821533,,,68.5368365471976,
1556798737033,,,,,-0.651242733001709,,0.3543526828289032,1012.590087890625,,
1556798737050,,,,2.3993251288781523,,,,,270.32919212294894,43.87464907900029
1556798737060,,30.685045405309875,,,,,,,,
1556798737092,10.0,,,,2.0064022541046143,-9.122186660766602,-2.044710636138916,,,
1556798737093,,,,,,,,,285.646150883891,
1556798737094,,,,,1.18037748336792,-8.97374153137207,,,,
1556798737095,,,,,,,0.17238777875900269,,216.31686212881016,
1556798737101,10.0,,,,,,,,,
1556798737102,,28.52651123328636,0.0,,,,,,,
1556798737109,,,,,,,,,211.05436529785538,
1556798737111,,,,,,,,,,44.38487493210552
1556798737112,,,,2.026261410078037,,,,,,
1556798737129,,,,,,,,1012.58740234375,,
1556798737140,,28.780956236632903,,,,,,,,
1556798737149,,,,,1.3240339756011963,,,,,
1556798737150,,,,,,-9.830892562866211,-0.1532335877418518,,228.61953546562052,
1556798737152,,,,,0.9744698405265808,-10.21158218383789,,,,
1556798737153,,,,,,,-0.2609759569168091,,235.28402424636874,
1556798737170,,,,3.023101866868025,,,,,172.69076003093724,43.68152511030167
1556798737180,,25.462089080689232,,,,,,,,
1556798737201,10.0,,,,,,,,,
1556798737208,,,,,1.453324794769287,,,,,
1556798737209,,,,,0.4549122154712677,-9.708784103393555,2.9258038997650146,,113.6496691094307,
1556798737211,,,,,1.1995316743850708,-10.800573348999023,1.1755889654159546,,,
1556798737212,,,,,,,,,156.0234182295703,
1556798737219,,27.67277896148096,0.0,,,,,,,
1556798737229,,,,3.637738831534985,,,,1012.596923828125,147.2240308803295,43.69586144543323
1556798737259,,25.913744543027263,,,,,,,,
1556798737271,9.0,,,,3.6345090866088867,,,,,
1556798737272,,,,,,-10.204399108886719,,,,
1556798737273,,,,,,,-0.6009629964828491,,242.4175147966651,
1556798737274,,,,,4.58024787902832,-10.867613792419434,-0.5171633362770081,,248.39618428285235,
1556798737290,,,,4.219053808505231,,,,,,
1556798737292,,,,,,,,,199.62952153355343,43.30607736143897
1556798737300,,27.508825605781308,0.0,,,,,,,
1556798737301,9.0,,,,,,,,,
1556798737330,,,,,1.7143007516860962,-11.995316505432129,,,,
1556798737331,,,,,,,1.671203851699829,1012.606201171875,133.41050603873398,
1556798737338,,30.05281704916633,,,,,,,,
1556798737349,,,,,,,,,160.34419589852035,43.81561219432525
1556798737350,,,,4.691726610106814,,,,,,
1556798737378,,29.803976260733407,0.0,,,,,,,
1556798737388,,,,,4.458139896392822,-14.875629425048828,-0.5027977228164673,,,
1556798737389,,,,,,,,,225.8780887780742,
1556798737402,9.0,,,,,,,,,
1556798737408,,,,6.064937141010949,,,,,,
1556798737409,,,,,,,,,21.098259685778032,44.71111269014024
1556798737419,,33.522894098962766,,,,,,,,
1556798737427,,,,,,,,1012.614013671875,,
1556798737451,10.0,,,,,,,,,
1556798737452,,,,,-2.695953369140625,-13.690463066101074,,,,
1556798737453,,,,,,,0.08379961550235748,,23.859209978499393,
1556798737458,,35.277190930755324,,,,,,,,
1556798737469,,,,5.326723512927877,,,,,26.270452878168726,44.39261837628524
1556798737499,,42.764384211818026,,,,,,,,
1556798737502,10.0,,,,,,,,,
1556798737509,,,,,-0.7877163887023926,,,,,
1556798737510,,,,,-1.3168511390686035,-13.518075942993164,1.8771114349365234,,99.30575275802704,
1556798737511,,,,,,,,,339.2374338666443,
1556798737515,,,55.79323468889509,,,,,,,
1556798737516,,,,,1.5059988498687744,,,,,
1556798737517,,,,,,-11.52125072479248,-4.668835639953613,,318.0891498753851,
1556798737530,,,,7.9885954629523654,,,,1012.621337890625,317.1663127713409,44.242870271500706
1556798737538,,43.403093929118796,,,,,,,,
1556798737539,,,55.79323468889509,,,,,,,
1556798737569,,,,,0.04309694468975067,-8.478127479553223,0.3256213665008545,,,
1556798737570,,,,,,,,,145.24177337940841,
1556798737579,,35.70246142599747,55.79323468889509,,,,,,,
1556798737588,,,42.177734375,,,,,,,
1556798737589,,,,4.478879532001572,,,,,,
1556798737590,,,,,,,,,266.88138776200736,44.77760881511365
1556798737603,10.0,,,,,,,,,
1556798737619,,36.90076129533835,42.177734375,,,,,,,
1556798737632,,,,,0.6081457734107971,-7.245075702667236,,,,
1556798737633,,,,,,,-3.2729737758636475,,327.0487563870815,
1556798737635,16.0,,,,-0.38787251710891724,-5.9018874168396,-2.513988494873047,1012.606201171875,341.5079543788439,
1556798737649,,,,6.885575085393507,,,,,,
1556798737650,,,,,,,,,13.355148285075018,44.05168623829302
1556798737659,,33.584992253596944,42.177734375,,,,,,,
1556798737688,,,,,-1.953728199005127,-4.379128456115723,,,,
1556798737689,,,,,,-3.7661943435668945,-1.0798178911209106,,27.773835571096527,
1556798737698,,27.25281795705498,,,,,,,,
1556798737703,16.0,,,,,,,,,
1556798737709,,,,7.226249993242951,,,,,52.571392305697884,44.40210778341897
1556798737727,,,,,,,,1012.61572265625,,
1556798737738,,26.568144676922035,,,,,,,,
1556798737748,,,,,-2.1237218379974365,-4.412648677825928,1.0439038276672363,,73.43716259741245,
1556798737769,,,,4.5391280519147825,,,,,94.27768167976546,43.88904533698636
1556798737779,,24.666339628520117,0.0,,,,,,,
1556798737803,16.0,,,,,,,,,
1556798737813,28.0,,,,-1.0893950462341309,,,,,
1556798737814,,,,,1.9178141355514526,-9.466962814331055,12.115030288696289,,80.22371368881795,
1556798737815,,,,,,-13.69285774230957,14.897177696228027,,,
1556798737816,,,,,,,,,103.44684181029243,
1556798737821,,26.75400568885136,,,,,,,,
1556798737831,,,,10.889015374346474,,,,,,
1556798737832,,,,,,,,1012.61572265625,168.53192614720817,45.00211868405163
1556798737860,,33.55757558762715,0.0,,,,,,,
1556798737872,,,,,1.3479766845703125,-15.648980140686035,4.642498970031738,,165.72551070027666,
1556798737873,,,,,-3.409447431564331,-8.605023384094238,,,,
1556798737874,,,,,,,5.64091157913208,,81.7568725914324,
1556798737891,,,,5.4899091919439815,,,,,79.12662138357382,44.24832116100709
1556798737900,,33.559839905528264,,,,,,,,
1556798737903,28.0,,,,,,,,,
1556798737930,,,,,-2.7821474075317383,,,,,
1556798737931,,,,,-2.8372156620025635,-12.481354713439941,3.1724140644073486,1012.620361328125,93.61836351918413,
1556798737932,,,,,,,,,17.391755079833047,
1556798737933,,,,,2.1500587463378906,,,,,
1556798737934,,,,,,-9.148524284362793,-1.501210331916809,,293.29388637679756,
1556798737940,,34.20384933071933,,,,,,,,
1556798737950,,,,3.86181909182681,,,,,,
1556798737951,,,,,,,,,292.26762996343564,
1556798737952,,,,,,,,,,44.63523989216734
1556798737962,,,93.55082194010416,,,,,,,
1556798737980,,35.264591361612425,93.55082194010416,,,,,,,
1556798737992,13.0,,,,0.5123748183250427,,,,,
1556798737993,,,,,,-3.1077687740325928,-6.529187202453613,,337.555180472185,
1556798737995,,,,,-0.8499675393104553,-7.977723598480225,-1.92020845413208,,357.2816816136438,
1556798738003,13.0,,,,,,,,,
1556798738011,,,,4.0506574120716135,,,,,356.0510723436174,43.921679649024455
1556798738021,,30.615426570899878,93.55082194010416,,,,,,,
1556798738030,,,,,,,,1012.637451171875,,
1556798738050,,,,,3.1412885189056396,,,,,
1556798738051,,,,,,-13.108654975891113,-4.125335693359375,,310.2122854414867,
1556798738053,,,,,7.537177085876465,-15.320964813232422,-5.087833881378174,,302.21009728160226,
1556798738060,,36.23994047284435,93.55082194010416,,,,,,,
1556798738071,,,,8.140649367166027,,,,,,
1556798738072,,,,,,,,,296.60899382254416,44.071989734622875
1556798738078,,,57.774169921875,,,,,,,
1556798738079,,,57.774169921875,,,,,,,
1556798738099,,36.29450110189464,57.774169921875,,,,,,,
1556798738103,13.0,,,,,,,,,
1556798738109,,,,,1.599375605583191,-10.202005386352539,3.8021082878112793,,161.10189610390654,
1556798738111,,,,,-3.936187744140625,-7.197190284729004,-0.7757450342178345,,31.495549300775792,
1556798738129,,,,5.589119129144637,,,,,,
1556798738130,,,,,,,,1012.628173828125,23.54905279583636,44.33626311168984
1556798738139,,32.45756839448716,57.774169921875,,,,,,,
1556798738171,10.0,,,,-0.5195576548576355,-8.260248184204102,,,,
1556798738172,,,,,,,0.706311047077179,,93.32880447951061,
1556798738173,,,,,1.4988160133361816,-7.996877670288086,-2.044710636138916,,,
1556798738174,,,,,,,,,302.7292223943745,
1556798738179,,33.36506815376882,,,,,,,,
1556798738190,,,,2.1126208163592914,,,,,,
1556798738191,,,,,,,,,300.6413530934121,
1556798738192,,,,,,,,,,43.97119965555365
1556798738203,10.0,,,,,,,,,
1556798738219,,29.614305114004157,,,,,,,,
1556798738229,,,117.81539916992188,,1.1229149103164673,-9.014444351196289,-1.8651400804519653,1012.603759765625,,
1556798738230,,,,,,,,,300.3301901653938,
1556798738231,,,,,1.1588289737701416,-9.035993576049805,-0.7685621976852417,,270.69454577184206,
1556798738249,,,,1.0641676213661717,,,,,264.6852019060923,44.28268335130762
1556798738259,,28.715467926942804,117.81539916992188,,,,,,,
1556798738288,,,,,1.4629019498825073,-9.768641471862793,-0.9265843629837036,,265.843021423247,
1556798738289,,,,,,-9.433443069458008,-0.1484450399875641,,235.2049989576717,
1556798738298,,23.389249218759353,117.81539916992188,,,,,,,
1556798738303,10.0,,,,,,,,,
1556798738308,,,,3.697875088023658,,,,,188.01826824642342,44.094447148442455
1556798738327,,,,,,,,1012.596923828125,,
1556798738338,,28.396059378446385,117.81539916992188,,,,,,,
1556798738350,8.0,,,,1.8028889894485474,-9.658504486083984,2.576239585876465,,125.3651032719709,
1556798738351,,,,,1.3862850666046143,,,,,
1556798738352,,,,,,-11.289005279541016,0.8619389533996582,,179.98646757402136,
1556798738369,,,,3.636581336353962,,,,,168.1000669463666,44.49565323845354
1556798738379,,24.9778188194512,,,,,,,,
1556798738403,8.0,,,,,,,,,
1556798738410,,,,,2.8013014793395996,,,,,
1556798738411,,,,,,-10.362421035766602,0.4549122154712677,,,
1556798738412,,,,,,,,,215.515011580629,
1556798738413,,,,,3.249030828475952,-11.274640083312988,1.132491946220398,,,
1556798738414,,,,,,,,,194.40258266741773,
1556798738420,,24.932248307216405,,,,,,,,
1556798738421,,,0.0,,,,,,,
1556798738430,,,,4.697487528867139,,,,,,
1556798738431,,,,,,,,1012.6005859375,,
1556798738432,,,,,,,,,171.47904349104195,44.17308291206994
1556798738460,,29.877100820292238,,,,,,,,
1556798738470,,,,,2.672010660171509,,,,,
1556798738471,,,,,,-12.929083824157715,1.659232497215271,,144.11162295858142,
1556798738491,,,,5.2471549181539725,,,,,175.44663207801065,
1556798738492,,,,,,,,,,44.765750397326215
1556798738500,,31.51365680313213,0.0,,,,,,,
1556798738505,8.0,,,,,,,,,
1556798738532,9.0,,,,,,,,,
1556798738533,,,,,2.509200096130371,-14.339311599731445,-0.9289786219596863,1012.610595703125,250.0093315308368,
1556798738535,,,,,-3.7590115070343018,,,,,
1556798738536,,,,,,-12.330514907836914,1.0008069276809692,,19.299310801801767,
1556798738541,,38.20002108267492,,,,,,,,
1556798738550,,,,4.710507096450752,,,,,,
1556798738551,,,,,,,,,33.50146316188727,44.80204418147397
1556798738580,,33.86977954605962,,,,,,,,
1556798738590,,,,,-2.293715238571167,,,,,
1556798738591,,,,,-1.9273911714553833,-16.41036033630371,,,,
1556798738592,,,,,,,1.4581133127212524,,54.81138699494937,
1556798738593,,,,,-0.23463892936706543,-12.821341514587402,,,,
1556798738594,,,,,,,-1.0127782821655273,,328.245979265558,
1556798738606,9.0,,,,,,,,,
1556798738610,,,,4.46715896133001,,,,,,
1556798738611,,,,,,,,,337.95825384076954,
1556798738612,,,,,,,,,,45.07501689439607
1556798738620,,41.61636394707237,,,,,,,,
1556798738629,,,,,,,,1012.61083984375,,
1556798738632,,,89.26953125,,,,,,,
1556798738650,,,,,-0.5123748183250427,,,,,
1556798738651,,,,,0.25618740916252136,-13.829331398010254,0.1771763414144516,,67.98960179089619,
1556798738660,,42.924842852990245,89.26953125,,,,,,,
1556798738670,,,,4.799525022848228,,,,,,
1556798738671,,,,,,,,,321.1142304135,45.28449869915174
1556798738699,,34.73669160249553,89.26953125,,,,,,,
1556798738706,9.0,,,,,,,,,
1556798738711,17.0,,,,,,,,,
1556798738713,,,,,-0.4357580244541168,-7.893924236297607,1.3383996486663818,,115.32419243729692,
1556798738729,,,,6.783193002259939,,,,,,
1556798738730,,,,,,,,,324.06267622912736,44.87253838500663
1556798738731,,,,,,,,1012.599365234375,,
1556798738739,,34.72811405344599,,,,,,,,
1556798738770,,,,,-0.2537931203842163,-6.249057292938232,,,,
1556798738771,,,,,,,-2.7653872966766357,,342.2081256083984,
1556798738773,,,,,-0.9720755815505981,,,,,
1556798738774,,,,,,-5.238673210144043,-1.1588289737701416,,9.463346623363122,
1556798738780,,33.135485989083065,,,,,,,,
1556798738791,,,,6.464227689679831,,,,,47.46807644844483,
1556798738792,,,,,,,,,,45.01083822972075
1556798738804,,,43.896484375,,,,,,,
1556798738805,,,43.896484375,,,,,,,
1556798738806,17.0,,,,,,,,,
1556798738819,,26.529147848893963,43.896484375,,,,,,,
1556798738829,,,,,-1.8890827894210815,-3.838022470474243,-0.337592750787735,,,
1556798738830,,,,,,,,1012.599365234375,42.91062930965927,
1556798738832,,,,,-2.3751206398010254,-4.369551658630371,-0.09577099233865738,,48.11972430658824,
1556798738849,,,,6.648819622170845,,,,,49.894729962429096,45.27654988880418
1556798738859,,26.40849733715326,43.896484375,,,,,,,
1556798738891,26.0,,,,,,,,,
1556798738892,,,,,-1.891477108001709,-4.824463844299316,1.6257126331329346,,83.62813951834079,
1556798738893,,,,,-1.8771114349365234,-8.241093635559082,,,,
1556798738894,,,,,,,8.200390815734863,,86.63744573456756,
1556798738900,,25.55363880537658,43.896484375,,,,,,,
1556798738907,26.0,,,,,,,,,
1556798738909,,,,6.08898614371069,,,,,,
1556798738910,,,,,,,,,80.0036313333818,45.351664971722904
1556798738929,,,,,,,,1012.609130859375,,
1556798738940,,25.377455860564528,,,,,,,,
1556798738950,,,,,0.18196488916873932,-12.988941192626953,,,,
1556798738951,,,,,,,15.5029296875,,,
1556798738952,,,,,,,,,72.64304382337173,
1556798738971,,,,10.809742482211973,,,,,,
1556798738972,,,,,,,,,,45.919837369082586
1556798738973,,,,,,,,,184.2452034470167,
1556798738981,,30.13488564979745,0.0,,,,,,,
1556798739007,26.0,,,,,,,,,
1556798739010,,,,,-0.991229772567749,-9.948211669921875,2.286532402038574,,,
1556798739011,,,,,,,,,113.87963474859589,
1556798739012,,,,,-3.167625665664673,,,,,
1556798739013,,,,,-3.2418479919433594,-3.878725290298462,4.690384387969971,,54.5056028409025,
1556798739020,,31.785448248878886,,,,,,,,
1556798739030,,,,,,,,,73.79634858548508,
1556798739031,,,,,,,,,,45.97809002865503
1556798739033,,,,4.351190136741797,,,,1012.6083984375,,
1556798739060,,29.90883272059662,,,,,,,,
1556798739061,,,0.0,,,,,,,
1556798739071,21.0,,,,,,,,,
1556798739075,,,,,-1.733454942703247,,,,,
1556798739076,,,,,-1.582615613937378,-13.209214210510254,-1.0008069276809692,,26.398681142099292,
1556798739091,,,,,,,,,278.63831532375536,46.16433665708466
1556798739093,,,,3.5910201609721977,,,,,,
1556798739101,,37.48882543028332,,,,,,,,
1556798739107,21.0,,,,,,,,,
1556798739129,,,,,-0.112530916929245,-2.3080809116363525,-4.654470443725586,1012.6083984375,339.7601892249604,
1556798739130,,,,,-3.871542453765869,,,,,
1556798739131,,,,,,-2.8970725536346436,-1.2905141115188599,,23.939881342786407,
1556798739139,,31.41047848101572,,,,,,,,
1556798739145,,,428.2421875,,,,,,,
1556798739149,,,,4.722944605805971,,,,,5.415845249992117,45.72208500430745
1556798739178,,33.038591849651894,,,,,,,,
1556798739181,,,428.2421875,,,,,,,
1556798739190,,,,,4.944177627563477,-14.444660186767578,,,,
1556798739194,,,,,,,-5.789356708526611,,,
1556798739195,,,,,6.213143348693848,-12.57473087310791,,,310.0898747911817,
1556798739207,21.0,,,,,,,,,
1556798739209,,,,6.62174159118577,,,,,259.0845014281952,46.462978140352774
1556798739219,,39.19413653131045,428.2421875,,,,,,,
1556798739228,,,,,,,,1012.616943359375,,
1556798739250,10.0,,,,,,,,,
1556798739251,,,,,-0.4740664064884186,-8.796566009521484,2.731867551803589,,,
1556798739252,,,,,,,,,106.18123974261528,
1556798739259,,27.124998571996358,428.2421875,,,,,,,
1556798739266,,,227.4267578125,,,,,,,
1556798739269,,,,4.446410568122069,,,,,13.60577268515857,
1556798739270,,,,,,,,,,46.59018356218306
1556798739299,,31.952410029639317,227.4267578125,,,,,,,
1556798739308,10.0,,,,,,,,,
1556798739309,,,,,0.4429408311843872,-8.116591453552246,-0.26815879344940186,,257.609604039201,
1556798739311,,,,,1.9369683265686035,-8.114197731018066,-2.6480679512023926,,,
1556798739312,,,,,,,,,302.6336782931698,
1556798739329,,,,2.7564982884133773,,,,,,
1556798739330,,,,,,,,1012.599853515625,302.0193437584621,47.12597897058647
1556798739339,,28.939654649143527,227.4267578125,,,,,,,
1556798739340,,,0.0,,,,,,,
1556798739370,,,,,1.3551595211029053,-9.215563774108887,-1.5107873678207397,,284.1693547023075,
1556798739373,,,,,0.8739103078842163,-9.172467231750488,-0.5291347503662109,,256.8236405110293,
1556798739380,,25.723116989670316,,,,,,,,
1556798739391,,,,1.187311810087592,,,,,249.86215461460137,46.904265566530086
1556798739408,10.0,,,,,,,,,
1556798739420,,24.774584160091226,0.0,,,,,,,
1556798739432,9.0,,,,1.2905141115188599,,,,,
1556798739433,,,,,,-10.386363983154297,-0.9122186899185181,,,
1556798739434,,,,,,-10.127782821655273,0.9768640995025635,1012.599853515625,258.78681446340937,
1556798739435,,,,,1.5299415588378906,,4.22110652923584,,172.27701449177454,
1556798739449,,,,6.424162148791455,,,,,64.39830198568183,46.675334579453676
1556798739458,,26.049835859869212,,,,,,,,
1556798739489,,,,,1.7095122337341309,,,,,
1556798739490,,,,,,-10.503684043884277,2.9210152626037598,,94.69264299260044,
1556798739491,,,,,2.0016138553619385,,,,,
1556798739492,,,,,3.1221344470977783,-11.253091812133789,-0.18196488916873932,,220.19672376607923,
1556798739500,,24.23294181935512,,,,,,,,
1556798739510,9.0,,,,,,,,,
1556798739512,,,,3.306896292214707,,,,,249.85227816106152,46.866452973077116
1556798739529,,,,,,,,1012.605712890625,,
1556798739540,,30.118009988792195,,,,,,,,
1556798739541,,,0.0,,,,,,,
1556798739551,,,,,4.635315895080566,,,,,
1556798739552,,,,,,-11.461393356323242,0.5171633362770081,,243.69741028485544,
1556798739554,,,,,1.2737542390823364,,,,135.6773092204778,
1556798739555,,,,,,-13.482161521911621,1.319245457649231,,,
1556798739570,,,,5.17125059663079,,,,,,
1556798739571,,,,,,,,,132.96291008204471,
1556798739572,,,,,,,,,,47.09269952623942
1556798739580,,30.204970465781447,,,,,,,,
1556798739610,9.0,,,,,,,,,
1556798739612,8.0,,,,1.0175668001174927,-12.668107986450195,0.9648927450180054,,,
1556798739613,,,,,,,,,139.88616740968806,
1556798739614,,,,,2.667222023010254,,,,,
1556798739615,,,,,,-14.916332244873047,0.9433442950248718,,169.46958817684586,
1556798739620,,28.621229246055385,,,,,,,,
1556798739621,,,0.0,,,,,,,
1556798739630,,,,2.763294337066126,,,,1012.6201171875,35.7656674566519,47.73304492418617
1556798739659,,32.88775660006681,,,,,,,,
1556798739669,,,,,-5.142902374267578,-9.380768775939941,1.6544438600540161,,,
1556798739670,,,,,,,,,17.304787988678584,
1556798739690,,,,6.687219346476578,,,,,,
1556798739691,,,,,,,,,50.984602757720495,48.353113163036085
1556798739700,,32.10696224250777,,,,,,,,
1556798739710,8.0,,,,,,,,,
1556798739721,,,94.60042317708334,,,,,,,
1556798739729,,,,,-1.4652961492538452,-15.376032829284668,0.6536370515823364,1012.6201171875,56.21816007716188,
1556798739730,,,,,-1.2593885660171509,,,,,
1556798739731,,,,,,-13.041614532470703,1.9848538637161255,,79.19795587926546,
1556798739739,,39.33484016665035,94.60042317708334,,,,,,,
1556798739749,,,,7.872331197315355,,,,,331.0126054454796,47.83012342532387
1556798739778,,40.12729242401995,,,,,,,,
1556798739779,,,94.60042317708334,,,,,,,
1556798739791,13.0,,,,,,,,,
1556798739792,,,,,1.7095122337341309,-11.794198036193848,,,,
1556798739793,,,,,,,-6.445387840270996,,325.37357736105497,
1556798739795,,,,,-0.06464541703462601,-8.430241584777832,0.3735068738460541,,,
1556798739796,,,,,,,,,126.17051917889881,
1556798739810,13.0,,,3.166376167491414,,,,,,
1556798739811,,,,,,,,,130.6889488620507,47.97768213897953
1556798739820,,35.117994180533856,94.60042317708334,,,,,,,
1556798739829,,,,,,,,1012.6064453125,,
1556798739840,,,51.8505859375,,,,,,,
1556798739850,,,,,0.36871832609176636,-8.59305191040039,0.2705530524253845,,,
1556798739851,,,,,,,,,197.40951880800253,
1556798739852,,,,,-0.06464541703462601,,,,,
1556798739853,,,,,,-6.385530948638916,-2.3008980751037598,,332.73523208812287,
1556798739859,,36.69071192309431,51.8505859375,,,,,,,
1556798739870,,,,6.490357803332818,,,,,,
1556798739871,,,,,,,,,336.91708370935487,
1556798739872,,,,,,,,,,48.34458560057037
1556798739899,,34.74954067833703,51.8505859375,,,,,,,
1556798739907,,,44.5361328125,,,,,,,
1556798739908,,,44.5361328125,,-0.742225170135498,-5.169239521026611,-0.7206767201423645,,13.253353707006113,
1556798739910,13.0,,,,-1.4509304761886597,-4.304905891418457,-0.06464541703462601,,46.04986621446716,
1556798739928,,,,6.766945091244639,,,,1012.6201171875,,
1556798739929,,,,,,,,,46.84652923397368,48.64505291912672
1556798739938,,29.952863974405123,,,,,,,,
1556798739939,,,44.5361328125,,,,,,,
1556798739970,24.0,,,,-2.6744048595428467,-4.683201313018799,-0.4142095446586609,,41.85118159202568,
1556798739972,,,,,-1.393467903137207,-5.336838722229004,1.75021493434906,,94.54656573682132,
1556798739979,,27.360096399764533,44.5361328125,,,,,,,
1556798739989,,,,4.638669202301862,,,,,97.26205087533248,48.57977214805344
1556798740010,24.0,,,,,,,,,
1556798740018,,29.724505412436763,,,,,,,,
1556798740030,,,,,-1.8962656259536743,,,,,
1556798740031,,,,,-2.236252784729004,-6.023995399475098,4.022381782531738,1012.6201171875,,
1556798740032,,,,,,,,,93.65881189944895,
1556798740033,,,,,-0.7230709791183472,,,,,
1556798740034,,,,,,-10.965778350830078,12.560365676879883,,87.64931776953739,
1556798740051,,,,10.300503868444867,,,,,76.1415964898465,48.271703685807
1556798740060,,28.704642894378516,,,,,,,,
1556798740090,,,,,3.0239691734313965,-15.804608345031738,13.898765563964844,,,
1556798740091,,,,,,,,,110.85799321072807,
1556798740092,,,,,6.763826370239258,,,,,
1556798740093,,,,,0.991229772567749,-20.66498565673828,,,,
1556798740094,,,,,,,8.650514602661133,,201.49476423361386,
1556798740100,,33.331892318971214,,,,,,,,
1556798740101,,,0.0,,,,,,,
1556798740110,24.0,,,4.164911867012957,,,,,,
1556798740111,,,,,,,,,164.96813834397062,47.47945048328366
1556798740129,,,,,,,,1012.62841796875,,
1556798740141,,35.30519783760306,,,,,,,,
1556798740152,20.0,,,,,,,,,
1556798740153,,,,,-1.9010541439056396,-4.336031913757324,4.249837875366211,,68.1796039932276,
1556798740154,,,,,-2.8348214626312256,-13.106260299682617,-1.4006507396697998,,,
1556798740155,,,,,,,,,27.50803192935632,
1556798740170,,,,6.283133001532071,,,,,,
1556798740171,,,,,,,,,27.600109709557216,49.06815047194995
1556798740182,,32.30161063183579,,,,,,,,
1556798740207,,,44.1845703125,,,,,,,
1556798740208,,,,,-3.0550947189331055,-21.962682723999023,-2.238646984100342,,20.159919759865204,
1556798740210,20.0,,,,2.08062481880188,,,,,
1556798740211,,,,,,-10.360027313232422,-0.5865973234176636,,267.1977826149299,
1556798740219,,37.83520952448785,44.1845703125,,,,,,,
1556798740229,,,,9.897474764497618,,,,1012.65185546875,332.36171465562427,48.1794398825119
1556798740259,,32.69493618514741,44.1845703125,,,,,,,
1556798740268,,,,,-3.9481592178344727,-3.8667538166046143,,,,
1556798740269,,,,,,,-1.7621862888336182,,22.458469660871287,
1556798740270,,,,,-2.7486274242401123,,,,,
1556798740271,,,,,,-7.908289909362793,-1.6640210151672363,,19.96554965155957,
1556798740288,,,,6.0397032956642995,,,,,305.4099828511453,
1556798740289,,,,,,,,,,47.287157271399394
1556798740300,,32.231168385392614,,,,,,,,
1556798740311,20.0,,,,,,,,,
1556798740330,13.0,,,,,,,,,
1556798740331,,,,,8.344047546386719,-15.043228149414062,-7.628159523010254,,,
1556798740332,,,,,,,,1012.65185546875,308.7450788454979,
1556798740333,,,,,6.395108222961426,-12.646559715270996,0.19633053243160248,,268.98083764870756,
1556798740340,,36.928779801507666,,,,,,,,
1556798740349,,,,3.506864763787817,,,,,113.13666726124939,48.17656180982153
1556798740379,,32.58235089654279,,,,,,,,
1556798740390,,,,,-3.9242165088653564,,,,,
1556798740391,,,,,,-7.723930358886719,-0.5004034638404846,,27.271732997283266,
1556798740394,,,94.7119140625,,,,,,,
1556798740410,,,,1.3326689684235575,,,,,,
1556798740411,13.0,,,,,,,,288.2802679788198,48.4711258125559
1556798740420,,32.81066235461996,94.7119140625,,,,,,,
1556798740429,,,,,,,,1012.625,,
1556798740452,,,,,1.3599480390548706,-7.893924236297607,-0.7996878027915955,,,
1556798740453,,,,,,,-0.8523618578910828,,269.04778033276284,
1556798740460,,30.975008816438653,,,,,,,,
1556798740461,,,94.7119140625,,,,,,,
1556798740470,,,,0.5319365384892445,,,,,,
1556798740471,,,,,,,,,276.85554715792284,48.34749157305114
1556798740500,,27.78958441805678,,,,,,,,
1556798740513,8.0,,,,0.7996878027915955,-8.961771011352539,-0.06943397223949432,,225.62024913690618,
1556798740514,,,,,1.5467015504837036,-9.658504486083984,-1.211503028869629,,271.8879642349509,
1556798740531,,,,1.3231336260529274,,,,,,
