timestamp,AmbientLightSensor,DecibelSource,PitchSensor,LinearAccelerometerSensor,AccX,AccY,AccZ,BarometerSensor,CompassSensor,MagneticRotationSensor
1556749453918,,,,1.9055147472802882,-2.5858168601989746,2.755810260772705,,,,
1556749453919,,,,,,,7.520417213439941,,15.75754352844831,43.28250263144702
1556749453940,,18.785986443759903,,,,,,,,
1556749453978,,22.631433918683364,0.0,,,,,,,
1556749454012,,,,,-1.872322916984558,2.9234094619750977,6.63214111328125,,12.420508614145092,43.1597291910207
1556749454013,,,,3.082162600427043,,,,1013.131591796875,,
1556749454018,,22.72344245490764,,,,,,,,
1556749454028,,,,,-1.412622094154358,3.2035396099090576,,,,
1556749454029,0.0,,,,,,7.280989646911621,,8.241039021386086,41.03815628813961
1556749454035,,,,,-1.862745761871338,3.1173458099365234,,,,
1556749454036,,,,0.7803197281227319,,,9.689630508422852,,10.494975834280922,41.44488610736947
1556749454053,,,,,-1.8340145349502563,2.8707354068756104,10.728745460510254,,10.539903111093963,41.84142840365553
1556749454058,,17.064245666695868,0.0,,,,,,,
1556749454078,,,,,-1.6472610235214233,2.3463892936706543,11.411113739013672,,7.1579908657359965,42.78256673144388
1556749454097,,,,,-1.8795057535171509,2.353572130203247,11.921093940734863,,7.908775077700739,43.271647373182894
1556749454101,,17.04974937346893,,,,,,,,
1556749454108,,,,2.5623863008907684,,,,1013.128173828125,,
1556749454116,,,,,-1.733454942703247,2.288926601409912,12.134184837341309,,6.612539642581567,43.14417253299128
1556749454137,0.0,,,,-1.0486923456192017,2.0830190181732178,11.877997398376465,,2.951035951426661,43.06466206231657
1556749454138,,23.13280010191491,,,,,,,,
1556749454156,,,,1.562282623428981,-0.13407939672470093,2.3775148391723633,10.427066802978516,,358.1644995721238,42.48275308581327
1556749454176,,,,,0.19633053243160248,2.3655436038970947,10.728745460510254,,357.2674383213468,42.344739871687246
1556749454178,,22.411869155896245,0.0,,,,,,,
1556749454196,,,,,-0.1604164093732834,2.578634023666382,10.659311294555664,1013.12841796875,1.9301713320842282,42.80628703537096
1556749454218,,21.62719142089657,,2.3166881473377856,-0.4189980924129486,2.164424419403076,11.552375793457031,,4.84159922995741,42.77810627549878
1556749454237,,,,,-0.6225114464759827,1.6855695247650146,12.378400802612305,,6.196866709412461,42.78134697800896
1556749454249,0.0,,,,,,,,,
1556749454258,,20.247852844629676,0.0,,-0.4620950520038605,1.1636176109313965,12.292206764221191,,4.063947615118764,42.69382584432417
1556749454280,,,,1.7662143230142135,-0.5626545548439026,1.2306572198867798,10.776631355285645,,5.213913268501642,42.413675862445665
1556749454300,,20.747621409075908,,,,,,,,
1556749454301,,,,,-0.5842030644416809,1.4030450582504272,8.97134780883789,1013.12646484375,6.796654648735284,42.27109589863779
1556749454319,,,,,-0.5315290093421936,1.6472610235214233,7.568302631378174,,7.485440806717008,42.32765004158747
1556749454338,,18.698268464437966,0.0,,,,,,,
1556749454342,,,,1.776624529853597,-0.6440598964691162,1.8890827894210815,7.915472507476807,,7.5996159564302275,42.23633359667407
1556749454350,0.0,,,,,,,,,
1556749454360,,,,,-0.9194015264511108,1.843591570854187,8.485309600830078,,8.767612455448216,42.671768655606094
1556749454378,,20.16919694268195,,,,,,,,
1556749454385,,,,,-1.118126392364502,1.7741576433181763,8.755863189697266,,11.483659377018625,42.829114663094984
1556749454404,,,,1.6325788558912322,-0.8116591572761536,2.018373727798462,7.968146324157715,1013.12890625,10.774529500594042,42.87951835956403
1556749454419,,17.855799976773948,,,,,,,,
1556749454425,,,,,-0.6871568560600281,2.3344178199768066,7.367183685302734,,7.121849346629688,43.37647332672938
1556749454443,,,,,,2.504411458969116,,,,
1556749454444,,,,,-0.924190104007721,,6.950579643249512,,10.814576607245101,43.242434874853565
1556749454452,0.0,,,,,,,,,
1556749454458,,18.252987676400497,0.0,,,,,,,
1556749454466,,,,2.0087929791907,-1.242628574371338,2.7725701332092285,,,,
1556749454467,,,,,,,7.613793849945068,,11.894950316948325,42.78975850124286
1556749454485,,,,,-1.2569942474365234,2.6839821338653564,6.878751754760742,,12.740193056926557,42.563645537232176
1556749454499,,17.349439883161615,,,,,,,,
1556749454505,,,,,-1.1109435558319092,2.6504621505737305,,,,
1556749454506,,,,,,,7.532388687133789,1013.12158203125,11.025649943166002,42.11038407898402
1556749454526,,,,,,3.2322709560394287,,,,
1556749454527,,,,2.0782983463812514,-0.9888355135917664,,7.673650741577148,,9.59258746283814,41.82856250135088
1556749454538,,20.993121653407126,0.0,,,,,,,
1556749454545,,,,,-0.9265843629837036,3.2155110836029053,8.693612098693848,,9.43893723481682,41.970889979920564
1556749454566,,,,,-1.192348837852478,3.38071608543396,,,,
1556749454567,0.0,,,,,,10.209187507629395,,9.51390624492052,42.40183366709991
1556749454578,,19.357533947527532,,,,,,,,
1556749454592,,,,2.33816116284648,-1.3743137121200562,3.098191499710083,11.528432846069336,,9.577436395711743,42.519556551991194
1556749454609,,,,,-1.6352896690368652,3.0527002811431885,11.588290214538574,1013.123046875,11.930903578965626,42.085627817247065
1556749454620,,18.162976777107495,0.0,,,,,,,
1556749454629,,,,,-1.8244373798370361,3.1077687740325928,10.240313529968262,,12.981685494089788,42.26717875609107
1556749454651,,,,1.4051919135436803,-1.5299415588378906,2.973689317703247,10.589877128601074,,10.342482469550305,42.703604302849705
1556749454658,,26.364941507784092,,,,,,,,
1556749454668,0.0,,,,,,,,,
1556749454670,,,,,-1.9058427810668945,3.6416919231414795,10.16130256652832,,13.105391319016121,42.542452539872144
1556749454691,,,,,-1.8220431804656982,3.694365978240967,9.457385063171387,,13.343370477625001,42.72796210163246
1556749454698,,22.686623291875023,,,,,,,,
1556749454714,,,,1.4996960649923423,-1.9106312990188599,3.5794408321380615,10.029617309570312,1013.117919921875,12.97839334290984,43.155557718098244
1556749454734,,,,,-2.229069948196411,2.7462332248687744,11.722369194030762,,14.672880459946327,42.70428125065371
1556749454738,,27.529082022736752,0.0,,,,,,,
1556749454753,,,,,-2.504411458969116,2.1261160373687744,12.371217727661133,,17.913502985246566,42.98232466166543
1556749454775,,,,2.6973022193277,-2.5618741512298584,1.113337755203247,11.710397720336914,,20.761070321927434,43.3846466293825
1556749454778,,23.01385607133441,,,,,,,,
1556749454784,0.0,,,,,,,,,
1556749454794,,,,,-3.0838260650634766,0.9720755815505981,10.582695007324219,,24.52833458318156,
1556749454795,,,,,,,,,25.57803391332226,43.0748580257935
1556749454818,,22.015596779331226,0.0,,-3.217905282974243,1.082212209701538,9.083878517150879,1013.117431640625,28.63016370809771,42.999741645214364
1556749454837,,,,1.8063048014527734,-2.226675510406494,0.8715160489082336,9.021627426147461,,23.402970417415418,43.42847679191916
1556749454855,,,,,-1.594586968421936,1.192348837852478,8.839662551879883,,18.609936393777787,
1556749454856,,,,,,,,,,43.233485967217185
1556749454862,,20.82133777790622,,,,,,,,
1556749454877,,,,,-0.9481328129768372,1.563461422920227,8.305739402770996,,14.71595675549429,43.210122142461124
1556749454900,,,,1.2059615744040972,-0.7254652380943298,1.9609110355377197,,,,
1556749454901,0.0,21.17177316524114,0.0,,,,8.367990493774414,,11.713216058607202,43.013681316513235
1556749454917,,,,,-1.6640210151672363,2.1141445636749268,8.573898315429688,1013.120361328125,17.910390126532377,43.213454120975186
1556749454936,,,,,-1.6568381786346436,2.3775148391723633,8.447001457214355,,16.991809937888377,
1556749454937,,,,,,,,,,43.59378733043756
1556749454940,,19.066971632998698,,,,,,,,
1556749454957,,,,,,2.3775148391723633,,,,
1556749454958,,,,2.029610192028433,-1.4485362768173218,,7.50126314163208,,15.335798130220269,43.19549955759844
1556749454977,,,,,,2.693559169769287,,,,
1556749454978,,15.502144824850955,,,-0.9648927450180054,,7.027196407318115,,12.227988633330881,43.43158547277991
1556749455004,,,,,-0.44533511996269226,3.0167863368988037,7.043956279754639,,8.442501427371155,
1556749455005,0.0,,,,,,,,7.582732582575602,43.163358642522006
1556749455021,,16.990832409677544,0.0,,,,,,,
1556749455022,,,,,,2.9952378273010254,,,,
1556749455023,,,,1.8367226727572357,-0.32801565527915955,,7.714353561401367,1013.12646484375,7.164829165755634,42.13307377299329
1556749455040,,,,,-0.6464542150497437,2.8970725536346436,8.219545364379883,,8.694421855849669,42.56614164481622
1556749455058,,17.25972714891265,,,,2.885101079940796,,,,
1556749455059,,,,,-0.9026415944099426,,9.136552810668945,,10.525899515748165,42.83655226543298
1556749455083,,,,0.6417226227187635,-0.8858816623687744,2.8013014793395996,9.99370288848877,,10.228910937804983,41.59147137058221
1556749455104,,29.64328592431307,0.0,,,,,,,
1556749455111,,,,,-0.28731298446655273,2.6145482063293457,10.628186225891113,,5.267901645022334,41.30149094747741
1556749455115,0.0,,,,,,,,,
1556749455121,,,,,-0.33280420303344727,2.226675510406494,11.051972389221191,,6.120764741680205,42.630621868808426
1556749455122,,,,,,,,1013.121826171875,,
1556749455138,,34.764810768676966,,,,,,,,
1556749455143,,,,,0.07182824611663818,1.764580488204956,11.511672973632812,,5.2466951883099,43.29410430171119
1556749455144,,,,2.348151384844568,,,,,,
1556749455160,,,,,-0.03351984918117523,2.446948766708374,11.21238899230957,,6.173927519084998,
1556749455161,,,,,,,,,7.141468638133745,43.513112907715445
1556749455179,,32.452006108027476,,,,,,,,
1556749455181,,,,,0.6225114464759827,2.6744048595428467,,,,
1556749455182,,,,,,,10.40312385559082,,1.840170569721181,43.71184216064927
1556749455185,,,495.263671875,,,,,,,
1556749455206,,,,1.7167806960939522,1.07024085521698,2.6863763332366943,10.209187507629395,,0.59179128190857,43.58503336735471
1556749455217,0.0,,,,,,,,,
1556749455218,,29.816219117554844,495.263671875,,,,,,,
1556749455221,,,,,1.5131816864013672,2.351177930831909,11.063943862915039,,,
1556749455222,,,,,,,,1013.11279296875,354.1298592315165,43.409945445893214
1556749455242,,,,,1.1229149103164673,2.011190891265869,,,,
1556749455243,,,,,,,11.719975471496582,,357.08828992993676,43.061151386145745
1556749455258,,26.195889959791398,495.263671875,,,,,,,
1556749455265,,,,,0.8906702399253845,1.2953026294708252,11.796591758728027,,358.658051175983,
1556749455268,,,,2.937237829318389,,,,,,43.323154906150904
1556749455284,,,,,0.7158881425857544,1.2689656019210815,10.905921936035156,,359.62704106886815,43.19420735301448
1556749455299,,33.337988934879135,495.263671875,,,,,,,
1556749455304,,,,,,1.532335877418518,,,,
1556749455305,,,,,0.9481328129768372,,9.450202941894531,,357.8654862699785,42.640796687617076
1556749455327,,,,,0.9936240315437317,2.0949904918670654,8.329682350158691,,356.9151002382473,43.36759237034948
1556749455328,,,,1.7962093281239393,,,,1013.11474609375,,
1556749455333,0.0,,,,,,,,,
1556749455338,,32.30896482645171,,,,,,,,
1556749455346,,,,,0.8643332123756409,2.205127000808716,8.126168251037598,,358.7377748515227,43.98368142912893
1556749455367,,,,,0.42139238119125366,2.42061185836792,8.18363094329834,,,
1556749455368,,,,,,,,,3.3835102961803614,43.74296262548013
1556749455378,,27.96097011886035,,,,,,,,
1556749455381,,,623.681640625,,,,,,,
1556749455390,,,,,0.23942747712135315,2.6504621505737305,8.121379852294922,,3.6932869092404985,44.00966189560778
1556749455391,,,,1.4564305926153698,,,,,,
1556749455410,,,,,0.12689656019210815,2.7055306434631348,7.7335076332092285,,5.158680943778336,44.30409753975307
1556749455419,,22.52588871621418,623.681640625,,,,,,,
1556749455429,,,,,-0.019154198467731476,2.8060901165008545,7.862798690795898,,6.374817042953396,44.046251806484364
1556749455430,,,,,,,,1013.10546875,,
1556749455450,0.0,,,,,,,,,
1556749455452,,,,1.4304821536708612,-0.09816526621580124,3.002420663833618,8.310527801513672,,6.584698937751,44.03627958028899
1556749455458,,43.99919664149089,623.681640625,,,,,,,
1556749455471,,,,,-0.04788549616932869,3.2035396099090576,8.3033447265625,,6.528819452603784,44.047885421347615
1556749455491,,,,,0.20590762794017792,3.469304084777832,8.212362289428711,,5.546926398561595,
1556749455492,,,,,,,,,,44.021889196652886
1556749455500,,45.707687882961885,,,,,,,,
1556749455513,,,,,0.4429408311843872,3.9481592178344727,7.874769687652588,,,
1556749455514,,,,,,,,,3.7324123672404994,44.10991503648317
1556749455518,,,,2.373246800670358,,,,,,
1556749455534,,,,,,3.9768905639648438,,,,
1556749455535,,,,,,,,1013.115966796875,,
1556749455539,,40.18366233166715,,,,,,,,
1556749455553,0.0,,,,-0.019154198467731476,4.199557781219482,8.949799537658691,,6.163617348532853,43.88666671727192
1556749455576,,,,,0.0,4.278569221496582,9.737515449523926,,6.673469625733162,
1556749455577,,,,1.732328977964846,,,,,5.579985794804941,43.456775802207524
1556749455579,,31.636957166217535,,,,,,,,
1556749455582,,,989.82421875,,,,,,,
1556749455595,,,,,,4.098998546600342,,,,
1556749455596,,,,,0.22027328610420227,,10.652128219604492,,4.373410252920564,43.9603899612781
1556749455618,,,,,0.33280420303344727,3.715914487838745,11.478153228759766,,3.811101696007711,44.35266271660789
1556749455622,,21.684714264353843,989.82421875,,,,,,,
1556749455637,,,,2.343504117147786,0.19393625855445862,3.4621214866638184,11.602655410766602,1013.10546875,4.030537317906862,44.050092199633966
1556749455655,,,,,0.04309694468975067,3.416630268096924,11.358439445495605,,,
1556749455656,,,,,,,,,6.01136602863096,43.8663594891732
1556749455659,,47.09143438738725,989.82421875,,,,,,,
1556749455667,0.0,,,,,,,,,
1556749455676,,,,,-0.5626545548439026,3.4836697578430176,9.696812629699707,,10.107065485653834,44.16358530914809
1556749455701,,47.9379498011143,,0.7944994654716676,-1.0175668001174927,3.253819465637207,,,,
1556749455702,,,,,,,9.158101081848145,,13.259101311192694,44.502773063957264
1556749455718,,,,,-1.659232497215271,2.8036959171295166,9.198803901672363,,19.667439215045192,44.42229135098809
1556749455739,,42.3272455906764,,,-2.0902018547058105,2.2769553661346436,10.21397590637207,1013.10546875,24.422299311411678,44.20921063648406
1556749455742,,,934.2724609375,,,,,,,
1556749455761,,,,1.991592857025325,-2.138087511062622,2.2458298206329346,10.553963661193848,,23.205185214524818,
1556749455762,,,,,,,,,,43.511747941305536
1556749455778,,33.97977724672958,934.2724609375,,,,,,,
1556749455780,,,,,-1.5179702043533325,1.9848538637161255,,,,
1556749455781,,,,,,,10.058348655700684,,19.72953758743165,43.180535431237196
1556749455784,0.0,,,,,,,,,
1556749455801,,,,,-1.0917893648147583,2.2530126571655273,9.459779739379883,,16.06595389023107,44.02188953720528
1556749455818,,22.126480387665588,934.2724609375,,,,,,,
1556749455829,,,,1.0700747929039574,-0.7087053656578064,2.2434353828430176,8.576292037963867,,16.270579527575478,44.48132957365836
1556749455842,,,,,,1.769369125366211,,,,
1556749455843,,,,,-0.8140534162521362,,8.858817100524902,1013.107421875,15.091579593804568,44.314456968030896
1556749455858,,20.67035412114729,934.2724609375,,,,,,,
1556749455861,,,934.5068359375,,,,,,,
1556749455863,,,,,-1.489238977432251,2.047105073928833,8.648120880126953,,,
1556749455864,,,,,,,,,21.662622848970557,44.06696500323929
1556749455886,0.0,,,1.5364940919324932,-1.3216396570205688,1.9752767086029053,8.518829345703125,,20.397081003320977,44.193817273237265
1556749455900,,21.126878197386397,934.5068359375,,,,,,,
1556749455905,,,,,-1.0295381546020508,1.9896423816680908,8.186025619506836,,16.779175903742157,44.50499703880741
1556749455922,,,,,-0.8068706393241882,2.1859729290008545,7.944203853607178,,15.087428546336469,44.63637112530313
1556749455938,,18.77307342556431,934.5068359375,,,,,,,
1556749455944,,,,1.4591186951849338,-0.8499675393104553,2.7486274242401123,8.035185813903809,1013.1064453125,14.063868350149392,44.539442248802665
1556749455962,,,,,-0.9768640995025635,2.887495517730713,,,,
1556749455963,,,,,,,7.865192890167236,,14.47733726665075,44.46279186703152
1556749455978,,19.00655039211779,,,,,,,,
1556749455983,,,,,-0.8930644989013672,3.155654191970825,,,,
1556749455984,,,,,,,7.755055904388428,,12.696238228296636,44.58032192914921
1556749456001,0.0,,,,,,,,,
1556749456006,,,,1.3867666746642753,-0.7230709791183472,3.416630268096924,8.241093635559082,,10.438659217026895,44.1516419130497
1556749456020,,41.595498703213224,0.0,,,,,,,
1556749456025,,,,,-0.5267404317855835,3.4836697578430176,8.265036582946777,,9.10273995594315,44.35460957349852
1556749456043,,,,,,3.347196102142334,,,,
1556749456044,,,,,-0.34477555751800537,,8.861210823059082,1013.1064453125,6.880652742034897,44.641732012228054
1556749456059,,45.25102384315616,,,,,,,,
1556749456073,,,,0.5535160643495742,-0.5554717779159546,3.404658794403076,9.194015502929688,,7.458763795366224,44.257268081416896
1556749456084,,,,,-0.3184385597705841,3.1364998817443848,9.907508850097656,,6.492081572605628,44.5283664045942
1556749456101,,41.292966364520076,,,,,,,,
1556749456107,,,,,,2.822849988937378,,,,
1556749456108,,,,,-0.18675343692302704,,10.884373664855957,,6.313423033825131,44.969950284160596
1556749456116,0.0,,,,,,,,,
1556749456127,,,,,0.09816526621580124,2.607365369796753,11.384777069091797,,4.700683035869929,44.97783322365905
1556749456128,,,,2.0931746418244126,,,,,,
1556749456138,,36.60383133869216,,,,,,,,
1556749456142,,,741.4892578125,,,,,,,
1556749456146,,,,,0.5291347503662109,2.506805658340454,11.674484252929688,1013.10498046875,1.030118992059272,44.43606443611771
1556749456169,,,,,0.9529213905334473,2.794118642807007,11.499701499938965,,357.91290891371614,44.329605263876495
1556749456178,,29.63682109608907,741.4892578125,,,,,,,
1556749456190,,,,2.096339432247973,1.4030450582504272,2.8635525703430176,10.771842002868652,,355.50061074982,44.562914718328976
1556749456206,,,,,,3.0191805362701416,,,,
1556749456207,,,,,1.7071179151535034,,10.723957061767578,,353.6950156648944,44.2836170522933
1556749456218,0.0,24.707332463395772,741.4892578125,,,,,,,
1556749456221,,,742.1142578125,,,,,,,
1556749456229,,,,,1.4581133127212524,3.1149516105651855,10.690437316894531,,355.104448252015,43.61327165955171
1556749456252,,,,2.508368599813779,1.4748733043670654,2.7677817344665527,11.30337142944336,,354.6575485477343,43.367880274131906
1556749456253,,,,,,,,1013.1123046875,,
1556749456258,,21.401394793962773,742.1142578125,,,,,,,
1556749456268,,,,,1.5395187139511108,2.3655436038970947,11.391959190368652,,,
1556749456269,,,,,,,,,354.15735287735987,43.75941943541929
1556749456288,,,,,1.3072741031646729,2.1476645469665527,10.678465843200684,,355.07607692686327,44.39837759017863
1556749456298,,21.24482413892507,742.1142578125,,,,,,,
1556749456311,,,,,0.5865973234176636,2.2554068565368652,,,,
1556749456312,,,,1.0148508495995772,,,9.569916725158691,,2.1462014643518614,44.32054979764856
1556749456319,0.0,,,,,,,,,
1556749456330,,,,,0.3136500120162964,2.4900457859039307,8.820508003234863,,5.560375467924189,44.01771957554587
1556749456338,,22.754850302890755,,,,,,,,
1556749456351,,,,,0.6608198285102844,2.669616460800171,8.0399751663208,1013.1123046875,4.977598968502946,43.87267962346865
1556749456373,,,,1.9392270420294602,,2.856369733810425,,,,
1556749456374,,,,,0.7853221297264099,,7.525205612182617,,359.1446091997407,43.83984362097944
1556749456378,,19.759733683463235,0.0,,,,,,,
1556749456392,,,,,0.651242733001709,2.98087215423584,7.309720993041992,,0.33057982180730505,44.10673231949031
1556749456413,,,,,0.2298503816127777,3.0814316272735596,7.326480865478516,,5.559901623550502,43.3768852871353
1556749456418,0.0,20.3384755748608,,,,,,,,
1556749456437,,,,2.0531366681793632,-0.12929083406925201,3.067065954208374,7.25225830078125,,7.470825909440464,43.218079189273006
1556749456454,,,,,-0.5267404317855835,3.253819465637207,7.271412372589111,,15.092786829740362,
1556749456455,,,,,,,,1013.104736328125,,43.846165709214596
1556749456459,,18.19051258822097,,,,,,,,
1556749456475,,,,,-0.5506832003593445,3.7111258506774902,7.146910190582275,,13.955443365943722,
1556749456476,,,,,,,,,,43.73012022360003
1556749456498,,,,,0.21069619059562683,4.15167236328125,6.972128391265869,,4.774950244036404,43.33292036368608
1556749456499,,19.439983980129597,0.0,,,,,,,
1556749456501,,,,2.5144496090994624,,,,,,
1556749456516,,,,,,4.398283004760742,,,,
1556749456517,,,,,0.46927785873413086,,7.350423812866211,,2.027246035993244,43.627591623567795
1556749456535,0.0,,,,,,,,,
1556749456536,,,,,0.46448931097984314,4.597007751464844,8.2817964553833,,3.129063764926002,43.88789819155298
1556749456538,,23.767651858435602,,,,,,,,
1556749456559,,,,1.7189536234140357,0.0071828244253993034,4.989668846130371,8.832479476928711,1013.095947265625,2.5065212638266985,43.55590838299905
1556749456577,,,,,0.13407939672470093,5.142902374267578,9.366402626037598,,5.546551591930893,43.517955449954975
1556749456579,,22.055578620452142,0.0,,,,,,,
1556749456598,,,,,0.6775797605514526,5.0686798095703125,10.101445198059082,,1.236746621882446,43.553799491350404
1556749456618,,18.130875546184523,,,,,,,,
1556749456621,,,,2.646999362514579,0.7182824611663818,4.896292209625244,11.221965789794922,,2.006142672448618,43.174116041609366
1556749456640,,,,,0.4716721475124359,4.644893169403076,11.293794631958008,,4.412846911414533,43.46042295030689
1556749456652,0.0,,,,,,,,,
1556749456658,,20.220115272722463,,,,,,,,
1556749456659,,,0.0,,,,,,,
1556749456660,,,,,,4.6017961502075195,,,,
1556749456661,,,,,0.04309694468975067,,10.965778350830078,1013.095947265625,7.54046822576521,43.92942327055257
1556749456685,,,,2.142906476769897,-0.2705530524253845,4.623344421386719,,,,
1556749456686,,,,,,,10.996904373168945,,8.902228653800023,43.35181562456021
1556749456698,,21.124826448295487,,,,,,,,
1556749456702,,,,,-0.18435916304588318,4.156461238861084,11.241120338439941,,8.712306706191384,43.40128040741907
1556749456723,,,,,-0.43336373567581177,3.351984739303589,11.739129066467285,,11.695162161083601,44.159918135924755
1556749456739,,20.426777297828423,,,,,,,,
1556749456747,,,,2.6796824285609353,-1.4317762851715088,2.0878076553344727,11.054367065429688,,,
1556749456748,,,,,,,,,23.956044985457254,44.18889070722896
1556749456752,0.0,,,,,,,,,
1556749456765,,,,,-1.9154198169708252,1.2641770839691162,9.92426872253418,,32.19093086017483,43.73148118004858
1556749456767,,,,,,,,1013.08935546875,,
1556749456778,,21.833150450235934,0.0,,,,,,,
1556749456788,,,,,-2.1835787296295166,1.149251937866211,9.481328010559082,,33.274499390862275,
1556749456789,,,,,,,,,,43.51605118332316
1556749456809,,,,2.2597414640224693,-1.9968252182006836,1.8890827894210815,9.205986976623535,,29.881760015009377,
1556749456810,,,,,,,,,,43.88170401428095
1556749456827,,23.81830054776486,,,,,,,,
1556749456838,,,,,-0.9337671995162964,1.9800652265548706,8.468549728393555,,21.384378017657184,44.11012018374596
1556749456848,,,,,-0.6201171875,2.36075496673584,7.879558563232422,,16.586931691815664,43.853102222559386
1556749456852,0.0,,,,,,,,,
1556749456859,,23.41063104911131,0.0,,,,,,,
1556749456870,,,,,-0.5674431324005127,2.6600394248962402,,,,
1556749456871,,,,,,,7.436617374420166,1013.0986328125,14.800707450263076,43.97328515322751
1556749456872,,,,1.9193517356463834,,,,,,
1556749456890,,,,,-0.6727912425994873,2.9210152626037598,7.269018173217773,,16.109815657533602,
1556749456891,,,,,,,,,,44.39813485078805
1556749456899,,24.197272759341246,,,,,,,,
1556749456910,,,,,-1.0008069276809692,3.2346651554107666,7.218738555908203,,18.24275566928162,44.626851503061424
1556749456929,,,,,,3.407052993774414,,,,
1556749456930,,,,1.904877402998926,-1.1731946468353271,,7.50126314163208,,18.352207743183783,44.3750995577961
1556749456938,,21.99312602416938,0.0,,,,,,,
1556749456947,,,,,,3.4333901405334473,,,,
1556749456948,,,,,-1.1779831647872925,,7.714353561401367,,19.138401790239982,44.11901630659422
1556749456952,0.0,,,,,,,,,
1556749456969,,,,,-1.1636176109313965,3.4549386501312256,7.807730197906494,1013.0986328125,18.227527762527075,44.24811726421551
1556749456978,,22.207024141609836,,,,,,,,
1556749456991,,,,,,3.876330852508545,,,,
1556749456992,,,,1.6316730228465222,-1.2138973474502563,,7.9537811279296875,,16.640623808881116,44.260849934461596
1556749457009,,,,,-0.8164477348327637,3.8883023262023926,7.709564685821533,,13.342837722869717,44.02892279387399
1556749457018,,24.699279936673367,,,,,,,,
1556749457029,,,,,-0.4620950520038605,4.134912490844727,7.479714393615723,,9.702537286776078,43.636996499917196
1556749457053,0.0,,,1.462739536851054,-0.42378664016723633,4.783761024475098,8.636149406433105,,9.097805998041451,43.697016534405456
1556749457059,,25.746466565030033,0.0,,,,,,,
1556749457070,,,,,-0.24661029875278473,4.45095682144165,8.358413696289062,1013.101318359375,6.907815977477242,44.18693418714968
1556749457091,,,,,0.14605076611042023,3.78056001663208,9.299363136291504,,5.803070018381277,
1556749457098,,23.684755786568168,,,,,,,,
1556749457113,,,,2.9022211842180505,0.43336373567581177,2.918621063232422,11.894757270812988,,4.659518766402755,43.87247217483422
1556749457131,,,,,0.1891477108001709,2.727078914642334,12.335304260253906,,4.100778556444425,
1556749457132,,,,,,,,,,43.83578037954484
1556749457140,,21.65445882918554,0.0,,,,,,,
1556749457151,,,,,-0.6368771195411682,2.5283541679382324,13.443853378295898,,9.058535825408455,43.78738160415003
1556749457168,0.0,,,,,,,,,
1556749457175,,,,4.778768256868756,-1.2761484384536743,3.2418479919433594,14.035239219665527,,0.9284382860504365,44.21560411749083
1556749457176,,,,,,,,1013.09130859375,4.913330730394534,
1556749457179,,23.19087165954098,,,,,,,,
1556749457193,,,,,-0.7015225291252136,2.695953369140625,12.981758117675781,,1.5433930873120403,44.31900695314858
1556749457213,,,,,-0.6344828009605408,2.944957971572876,10.269044876098633,,1.3181896908239423,43.36505908696159
1556749457218,,24.352716307014365,0.0,,,,,,,
1556749457238,,,,1.1333505865261044,-0.16281068325042725,3.1364998817443848,9.268238067626953,,357.3939998056764,43.61257029438998
1556749457254,,,,,-0.26815879344940186,2.444554567337036,11.083098411560059,,,
1556749457255,,,,,,,,,359.7701408690972,43.81409196687239
1556749457260,,22.153584585816006,,,,,,,,
1556749457269,0.0,,,,,,,,,
1556749457274,,,,,-0.8739103078842163,1.5131816864013672,11.660118103027344,1013.09130859375,8.102344346326163,43.68288208501926
1556749457298,,21.302918215080155,,,,,,,,
1556749457303,,,,1.8089825931046881,-0.8092648983001709,1.489238977432251,9.435836791992188,,9.995923793705742,43.88034984616376
1556749457316,,,,,-0.7733507752418518,1.5395187139511108,,,,
1556749457317,,,,,,,7.5443596839904785,,10.919063133620682,43.76377703686916
1556749457337,,,,,-0.8284190893173218,1.9297854900360107,6.689603805541992,,10.63133458464472,43.62230946522671
1556749457338,,20.91208207715665,0.0,,,,,,,
1556749457359,,,,2.237484135917814,-0.3495641350746155,2.70074200630188,7.139727592468262,,,
1556749457360,,,,,,,,,3.665855588873285,43.76024151951822
1556749457368,0.0,,,,,,,,,
1556749457378,,,,,-0.13886794447898865,3.217905282974243,6.854808807373047,1013.096923828125,2.883093071544806,44.030596005679186
1556749457379,,20.882305383334057,,,,,,,,
1556749457399,,,,,0.05267404764890671,2.7677817344665527,5.547534942626953,,2.644215316173245,43.84029484766292
1556749457418,,22.214142378423386,0.0,,,,,,,
1556749457422,,,,3.424115148809562,-0.46927785873413086,2.758204460144043,5.813299179077148,,13.821055125155453,43.536933862992555
1556749457440,,,,,-0.2178790122270584,2.9641122817993164,6.9912824630737305,,13.304217271981543,43.440784870323135
1556749457458,,25.40403966563394,,,,,,,,
1556749457462,,,,,0.29210153222084045,3.1700198650360107,,,,
1556749457463,,,,,,,7.87237548828125,,9.563496833389365,43.874279885510454
1556749457470,0.0,,,,,,,,,
1556749457485,,,,1.5505309395358764,-0.3471698462963104,4.697566986083984,8.463761329650879,1013.082763671875,10.867975879949881,43.765053706773024
1556749457498,,22.100587427329252,0.0,,,,,,,
1556749457503,,,,,-5.5666890144348145,9.735121726989746,8.305739402770996,,43.47918450145488,43.39526671537629
1556749457523,,,,,1.7478206157684326,2.825244188308716,7.417463302612305,,353.32195286686243,43.186204214369134
1556749457538,,21.714096785639324,,,,,,,,
1556749457545,,,,2.2539645341183236,1.1229149103164673,5.39190673828125,9.73272705078125,,,
1556749457546,,,,,,,,,3.720481734307782,43.54321998971193
1556749457564,,,,,2.971295118331909,5.078257083892822,9.313729286193848,,348.8515056895167,44.07877091070224
1556749457570,0.0,,,,,,,,,
1556749457578,,26.171668203968682,,,,,,,,
1556749457586,,,,,1.659232497215271,5.755836486816406,8.691217422485352,1013.082763671875,0.545178762639523,44.48622436779958
1556749457606,,,,2.0540967897158584,1.9848538637161255,4.903474807739258,8.796566009521484,,359.620198419939,
1556749457607,,,,,,,,,,43.859753792850576
1556749457623,,19.27360468416474,0.0,,,,,,,
1556749457625,,,,,0.7565908432006836,4.470110893249512,9.636956214904785,,11.145462560265457,43.10577244108868
1556749457646,,,,,0.19154198467731476,4.412648677825928,10.814939498901367,,16.986572890342302,43.84440002088326
1556749457658,,17.317412993636168,,,,,,,,
1556749457669,0.0,,,,,,,,,
1556749457670,,,,2.2616538135647795,-0.5554717779159546,4.175615310668945,11.128589630126953,,18.13185901037002,44.25621273131971
1556749457687,,,,,-0.5435003638267517,3.565075159072876,,,,
1556749457688,,,,,,,10.37439250946045,1013.083740234375,25.65012314491713,43.86508649703821
1556749457698,,23.587838340258273,,,,,,,,
1556749457699,,,0.0,,,,,,,
1556749457707,,,,,,3.3974759578704834,,,,
1556749457708,,,,,-1.6305011510849,,9.177255630493164,,33.45269219611879,43.64182277426057
1556749457730,,,,2.116443461066031,-1.9273911714553833,3.720703125,10.02243423461914,,32.68815838646799,43.955107247407625
1556749457738,,23.128705265543957,,,,,,,,
1556749457748,,,,,-0.5004034638404846,3.4621214866638184,,,,
1556749457749,,,,,,,11.415902137756348,,20.634973077017946,43.71122407203314
1556749457770,0.0,,,,,,,,,
1556749457772,,,,,1.0151724815368652,2.7151076793670654,10.989721298217773,,9.722338858953549,43.97783092942212
1556749457778,,23.168080398093736,0.0,,,,,,,
1556749457792,,,,1.3362565579802095,0.936161458492279,2.8036959171295166,9.897932052612305,,14.543028318540621,44.13422936686044
1556749457793,,,,,,,,1013.06494140625,,
1556749457810,,,,,0.9265843629837036,2.3631491661071777,9.04317569732666,,13.198495335139853,43.915325826647766
1556749457821,,22.326201707846245,,,,,,,,
1556749457831,,,,,,2.3966691493988037,,,,
1556749457832,,,,,1.1205205917358398,,8.389538764953613,,11.270455022076646,44.300036976680445
1556749457854,,,,1.7482937260236373,0.4860377907752991,2.382303476333618,7.908289909362793,,18.079520978307528,
1556749457855,,,,,,,,,,43.97967053798707
1556749457858,,19.943126627007878,,,,,,,,
1556749457873,,,,,0.42378664016723633,2.4277946949005127,8.054340362548828,,18.578208457535766,43.68766406035828
1556749457884,0.0,,,,,,,,,
1556749457893,,,,,-0.8906702399253845,2.3080809116363525,8.016032218933105,,,
1556749457894,,,,,,,,1013.06494140625,31.84989268472691,43.564170615047416
1556749457898,,18.703415216168633,0.0,,,,,,,
1556749457914,,,,1.590574354403461,-0.483643501996994,3.033546209335327,7.9849066734313965,,24.15530380166132,43.32116135517252
1556749457938,,,,,0.011971374042332172,4.087027072906494,7.774210453033447,,16.4059214335266,
1556749457939,,21.45120971476249,,,,,,,,44.14687198036041
1556749457969,,,,,0.46448931097984314,4.443774223327637,8.087860107421875,,12.404117013910707,44.80778757716597
1556749457976,,,,1.2075801946732472,0.5985686779022217,3.0503060817718506,8.118986129760742,,13.472749628430677,
1556749457977,,,,,,,,,,44.2159296890212
1556749457978,,19.042179573851467,0.0,,,,,,,
1556749457986,0.0,,,,,,,,,
1556749457996,,,,,0.30886146426200867,2.5906052589416504,8.296162605285645,1013.072265625,17.06422872611074,44.41953611637503
1556749458014,,,,,-0.2130904644727707,2.423006057739258,8.87078857421875,,21.887078233022805,
1556749458015,,,,,,,,,20.699670336383633,45.23956072728123
1556749458018,,24.334505197431078,,,,,,,,
1556749458038,,,,0.9697765940564665,0.016759924590587616,3.1532599925994873,8.609811782836914,,16.934193877144764,43.99223377530286
1556749458057,,,,,1.1157320737838745,3.196356773376465,7.743084907531738,,4.65793928515717,43.249387339297776
1556749458058,,24.10456817888071,,,,,,,,
1556749458059,,,0.0,,,,,,,
1556749458078,,,,,0.7015225291252136,3.567469358444214,8.068706512451172,,7.862674715897754,43.75542719483713
1556749458087,0.0,,,,,,,,,
1556749458098,,22.01023794827776,,,,,,,,
1556749458101,,,,0.43723084480985236,0.22027328610420227,2.722290515899658,9.299363136291504,1013.078857421875,7.902091737597857,44.35655705928325
1556749458122,,,,,0.05985686928033829,2.3775148391723633,10.42467212677002,,17.00787112772167,44.103672344125464
1556749458137,,,,,1.8986599445343018,2.078230619430542,10.817333221435547,,2.509011508109438,43.59576969216728
1556749458142,,22.173018682357473,,,,,,,,
1556749458160,,,,,3.033546209335327,2.298503875732422,10.865219116210938,,354.42483333054133,43.69272986672715
1556749458165,,,,2.9566704997396585,,,,,,
1556749458178,,,,,2.9329867362976074,2.1787900924682617,9.976943016052246,,352.9787081134258,43.3362846176184
1556749458179,,24.78763573407138,0.0,,,,,,,
1556749458197,,,,,2.4277946949005127,1.563461422920227,8.032792091369629,1013.078857421875,350.8133981276538,43.52233763298162
1556749458201,0.0,,,,,,,,,
1556749458218,,21.791627793848303,,,,,,,,
1556749458220,,,,,2.1285102367401123,1.441353440284729,7.199584484100342,,350.6886302083115,43.59044247176249
1556749458221,,,,2.8038583874171414,,,,,,
1556749458238,,,,,3.785348415374756,0.4022381603717804,8.279402732849121,,,
1556749458239,,,,,,,,,332.9815867662015,43.023847631667735
1556749458258,,22.89342178217623,0.0,,,,,,,
1556749458260,,,,,2.6839821338653564,0.14605076611042023,11.099858283996582,,359.80847405183385,42.49037813904953
1556749458285,,,,4.160063635999624,1.082212209701538,0.07422251999378204,12.929083824157715,,2.234909613414459,
1556749458286,,,,,,,,,20.87617950000964,42.90880985260392
1556749458298,,24.468730508108948,,,,,,,,
1556749458302,,,,,,0.6536370515823364,,,,
1556749458303,,,,,1.2809370756149292,,12.629799842834473,1013.0849609375,17.306186469911154,43.83130423096909
1556749458304,0.0,,,,,,,,,
1556749458321,,,,,,0.9816526770591736,,,,
1556749458322,,,,,1.283331274986267,,10.479741096496582,,13.99733633121798,44.1765035152817
1556749458339,,25.018902609734447,0.0,,,,,,,
1556749458344,,,,2.4349219553697106,2.0925962924957275,1.1372805833816528,7.522811412811279,,357.8368684176864,44.42630125074864
1556749458364,,,,,2.1165390014648438,1.8531687259674072,6.962551116943359,,,
1556749458365,,,,,,,,,354.68394850953683,44.380210941839714
1556749458378,,21.64612467198897,,,,,,,,
1556749458383,,,,,,2.2123098373413086,,,,
1556749458385,,,,,1.903448462486267,,7.656890869140625,,359.27504740339367,43.949987684020385
1556749458407,,,,0.8645470776290616,1.563461422920227,2.042316436767578,9.155706405639648,,,
1556749458408,,,,,,,,1013.0849609375,2.4779200601207094,44.264426584126625
1556749458418,,22.896493605444,,,,,,,,
1556749458419,0.0,,,,,,,,,
1556749458425,,,,,0.6727912425994873,2.5594797134399414,10.079896926879883,,,
1556749458426,,,,,,,,,15.336288196293197,44.73385041886206
1556749458446,,,,,0.6967339515686035,1.0486923456192017,9.51245403289795,,17.857283698188212,45.16298426361145
1556749458458,,23.064408326108268,0.0,,,,,,,
1556749458470,,,,1.4897212873836039,0.35674694180488586,1.6281068325042725,8.956981658935547,,17.806711270026142,44.940838416495104
1556749458488,,,,,,1.398256540298462,,,,
1556749458489,,,,,1.41022789478302,,8.506858825683594,,10.750515409245907,44.43570078149857
1556749458498,,25.44281832865518,,,,,,,,
1556749458507,,,,,,2.425400495529175,,,,
1556749458508,,,,,2.3152637481689453,,7.146910190582275,1013.0849609375,1.0760680224834687,44.61616200405462
1556749458530,,,,,2.1883671283721924,2.631308078765869,6.411868095397949,,2.2968075624374364,44.79585540251106
1556749458531,,,,3.1737158934483505,,,,,,
1556749458535,0.0,,,,,,,,,
1556749458538,,28.046643645940712,0.0,,,,,,,
1556749458549,,,,,2.8036959171295166,1.7286664247512817,7.57309103012085,,,
1556749458550,,,,,,,,,4.722423954884903,44.519067738378325
1556749458570,,,,,3.0574889183044434,2.535537004470825,9.2802095413208,,,
1556749458571,,,,,,,,,11.756862674950867,44.76104463672431
1556749458578,,25.049283429581664,,,,,,,,
1556749458593,,,,1.824073148548962,4.934600353240967,2.4661030769348145,10.168484687805176,,8.614793802958388,44.9698280644709
1556749458611,,,,,5.300924301147461,2.6887705326080322,10.896344184875488,,,
1556749458612,,,,,,,,1013.08544921875,12.318435705867444,44.843526349276274
1556749458618,,24.210253477578583,0.0,,,,,,,
1556749458632,,,,,5.561900615692139,2.2721667289733887,11.516461372375488,,15.592886450579499,44.99995811114591
1556749458635,0.0,,,,,,,,,
1556749458655,,,,3.287736856609066,5.9018874168396,1.9178141355514526,11.504490852355957,,17.957965809196082,44.127255676744646
1556749458658,,22.951368182893496,,,,,,,,
1556749458673,,,,,5.348809719085693,1.6544438600540161,11.217177391052246,,22.23367276736053,
1556749458698,,22.66853549791254,,,,,,,,
1556749458700,,,,,4.441379547119141,1.8244373798370361,10.879584312438965,,26.07239105261675,44.640241150973765
1556749458719,,,,1.8010738242701745,4.1660380363464355,1.9680938720703125,9.771035194396973,1013.0908203125,26.939044728095666,44.27877882485677
1556749458736,2.0,,,,5.238673210144043,2.4038519859313965,8.430241584777832,,17.619074020694825,43.84181460377144
1556749458738,,28.11782401531243,0.0,,,,,,,
1556749458758,,,,,5.296135902404785,2.327235221862793,7.084659099578857,,12.512946686824762,44.314538090478706
1556749458778,,49.80826171386026,,,,0.8643332123756409,,,,
1556749458779,,,,3.8031816263614417,7.75266170501709,,10.319324493408203,,19.403414837583796,44.37027350330463
1556749458797,,,,,7.664073467254639,0.5985686779022217,11.145349502563477,,27.32507848224833,44.31762468765599
1556749458820,,27.730314429503213,,,,,,,,
1556749458822,,,3012.1484375,,5.425426483154297,-0.11492519080638885,10.40073013305664,,41.82511075996371,
1556749458823,,,,,,,,1013.0908203125,,43.975291687328216
1556749458835,2.0,,,,,,,,,
1556749458840,,,,,,-0.3256213665008545,,,,
1556749458841,,,,,3.7398571968078613,,9.06472396850586,,49.451867326834645,43.50893548352789
1556749458842,,,,4.728013804175142,,,,,,
1556749458858,,24.947649270781817,,,,,,,,
1556749458859,,,3012.1484375,,3.8332340717315674,-0.04788549616932869,5.104593753814697,,29.606653655619596,43.783145278064126
1556749458880,,,,,4.774183750152588,0.2011190801858902,4.903474807739258,,19.514852788987127,44.16570385968361
1556749458898,,23.330769617943396,3012.1484375,,,,,,,
1556749458906,,,,6.330900360726064,10.568328857421875,1.8028889894485474,1.0726351737976074,,26.91565474528295,43.660460276254874
1556749458919,,,,,,4.53236198425293,,,,
1556749458920,,,,,8.978530883789062,,1.9321798086166382,1013.0849609375,332.62342359895706,43.238355723903204
1556749458935,2.0,,,,,,,,,
1556749458938,,25.349049087002413,,,,,,,,
1556749458939,,,,,,4.71193265914917,,,,
1556749458940,,,,,6.076669692993164,,2.5235655307769775,,346.9793226634859,42.48580333115888
1556749458961,,,,7.989193531724808,4.168432235717773,2.571451187133789,-1.8866885900497437,,302.98312784658054,43.064035391585925
1556749458978,,26.29896522027281,0.0,,,,,,,
1556749458981,,,,,5.279376029968262,1.3383996486663818,1.812466025352478,,336.4776873947642,42.944829000704864
1556749459002,,,,,6.074275016784668,1.3575538396835327,3.624932050704956,,358.8069468452901,43.19720635488786
1556749459018,,32.67671822554937,,,,,,,,
1556749459023,,,,5.942597138826973,6.593832969665527,1.1851660013198853,,,,
1556749459024,,,,,,,0.04309694468975067,1013.080810546875,359.15670936010304,44.2039163622992
1556749459041,,,,,7.429434776306152,2.576239585876465,2.3056867122650146,,340.1308704214062,44.095795390538854
1556749459052,2.0,,,,,,,,,
1556749459058,,29.755703871391308,,,,,,,,
1556749459062,,,,,7.075081825256348,3.102980136871338,2.9928436279296875,,346.12971799394893,43.58503205844678
1556749459091,,,,,,5.118959426879883,,,,
1556749459092,,,,2.98287047164478,6.016812801361084,,4.429408550262451,,3.08459966031603,44.012810528288945
1556749459098,,27.45523119930531,0.0,,,,,,,
1556749459105,,,,,6.833260536193848,3.3974759578704834,6.100612163543701,,,
1556749459106,,,,,,,,,11.109666392599024,44.19508086622557
1556749459125,,,,,8.51404094696045,3.0598831176757812,6.9912824630737305,1013.080810546875,7.285237716860138,43.799629585476545
1556749459139,,30.64644508345061,,,,,,,,
1556749459151,,,,,,2.229069948196411,,,,
1556749459152,2.0,,,2.318875365454179,9.49329948425293,,6.409473896026611,,359.50115665372044,43.8509682902102
1556749459165,,,,,9.9003267288208,1.0247496366500854,4.95136022567749,,349.3662475283891,44.18611795594272
1556749459178,,40.502759589450214,0.0,,,,,,,
1556749459219,,51.43444094899611,,,,,,,,
1556749459258,,52.38394701489231,,,,,,,,
1556749459263,,,216.42578125,,,,,,,
1556749459271,,,,,8.904308319091797,0.8308133482933044,3.663240432739258,,349.13529578066255,44.30893231489272
1556749459272,,,,0.9184068973371147,,,,1013.091796875,,44.4160902481743
1556749459275,,,,,9.636956214904785,-4.127729892730713,,,,
1556749459277,2.0,,,,,,,,,
1556749459292,4.0,,,,11.667301177978516,-4.525179386138916,,,,
1556749459293,,,,,,,0.6584255695343018,,343.76070103127586,44.49577260817916
1556749459298,,40.178446815272835,216.42578125,,,,,,,
1556749459313,,,,,10.707197189331055,-2.7725701332092285,0.876304566860199,,357.3537198322633,45.014437396916975
1556749459338,,45.39942919869833,216.42578125,,,,,,,
1556749459394,,46.71281917607062,216.42578125,,,,,,,
1556749459418,,50.833050593654775,,,,,,,,
1556749459430,,,,1.8714031051350695,10.328901290893555,-2.226675510406494,3.0886144638061523,1013.09912109375,19.99724343685574,45.31243435257149
1556749459431,,,,4.847086882986595,,,,,,
1556749459436,,,,,14.061575889587402,-1.3862850666046143,4.7598185539245605,,34.10042635586774,44.10424257602618
1556749459451,,,,,,,,1013.09912109375,,
1556749459458,,42.02062171971299,,,,,,,,
1556749459460,,,43.06640625,,,,,,,
1556749459498,,37.12675990652438,43.06640625,,,,,,,
1556749459538,,32.308974953590955,43.06640625,,,,,,,
1556749459539,,,47.001953125,,,,,,,
1556749459579,,34.702737016487376,47.001953125,,,,,,,
1556749459587,,,,,,-1.2330515384674072,,,,
1556749459588,5.0,,,5.846781061866468,13.290619850158691,-1.1684061288833618,5.288952827453613,1013.107177734375,35.66133631707993,44.63757956874982
1556749459601,,,,,9.100638389587402,-1.7358492612838745,5.023188591003418,,47.03284313415327,44.222929602360786
1556749459618,,33.039095696526545,47.001953125,,,,,,,
1556749459624,,,,,8.080677032470703,-2.9042553901672363,4.381523132324219,,54.76498951991749,44.304585702085056
1556749459643,,,,,7.44140625,-4.098998546600342,4.309694766998291,,66.89287148567809,43.62102923431756
1556749459645,,,,2.588769842538718,,,,,,
1556749459646,,,,,,,,1013.1025390625,,
1556749459658,,32.633127370131916,47.001953125,,,,,,,
1556749459666,,,,,6.25145149230957,-4.972908973693848,1.872322916984558,,94.60072913693955,43.74773488034497
1556749459684,,,,,,-5.825270652770996,,,,
1556749459685,,,,,5.839636325836182,,-0.40463244915008545,,144.45169807735635,43.854170981719605
1556749459688,5.0,,,,,,,,,
1556749459699,,32.858763571300905,,,,,,,,
1556749459738,,29.147744652999602,0.0,,,,,,,
1556749459746,,,,7.276055443618026,6.19159460067749,-6.469330310821533,-1.642472505569458,,172.42950529518424,43.611622959440226
1556749459747,,,,,,,,1013.092529296875,,43.78034983960906
1556749459768,,,,7.157887367268362,4.467716693878174,-7.383943557739258,-0.33519846200942993,,144.4780216264176,44.1360671757762
1556749459778,,35.7638960769139,,,,,,,,
1556749459788,5.0,,,,4.017592906951904,-6.75185489654541,0.028731297701597214,,132.2838799955187,44.269510981028354
1556749459809,,,,,5.564294815063477,-6.639324188232422,0.21069619059562683,,114.36905878376231,44.45728790999714
1556749459818,,37.13181136876321,,,,,,,,
1556749459821,,,0.0,,,,,,,
1556749459829,,,,3.052825906837148,8.552350044250488,-6.711152076721191,,,,
1556749459830,,,,,,,0.9265843629837036,,89.49065480750278,44.454573717811925
1556749459853,3.0,,,,10.877190589904785,-7.3623948097229,1.2378400564193726,1013.0966796875,82.7598995314271,44.29459072545316
1556749459858,,39.103578599140576,,,,,,,,
1556749459869,,,,,10.824516296386719,-7.673650741577148,,,,
1556749459870,,,,,,,0.4980091452598572,,84.76023654308119,44.53249027950016
1556749459888,3.0,,,,,,,,,
1556749459890,,,,3.3882360524405772,,-7.534782886505127,,,,
1556749459891,,,,,9.830892562866211,,-0.49322059750556946,,88.16606256138391,44.69782513584973
1556749459898,,34.17048006031563,,,,,,,,
1556749459908,,,,,8.813325881958008,-6.914665699005127,,,,
1556749459909,,,,,,,-0.5818088054656982,,85.66642506102352,44.4633594198189
1556749459929,,,,,9.3233060836792,-5.681613922119141,-1.228263020515442,,69.24667078688037,44.47781032428053
1556749459944,,34.97561542418095,,,,,,,,
1556749459951,,,,2.453637525144528,9.414288520812988,-4.90108060836792,-0.2705530524253845,,,
1556749459952,,,,,,,,1013.109375,64.42600523295539,44.09681462550986
1556749459965,,,25.61376953125,,,,,,,
1556749459976,,,,,7.726325035095215,-3.787742853164673,1.0558751821517944,,60.01724789730639,43.987038851637024
1556749459983,,37.48111390903969,25.61376953125,,,,,,,
1556749459989,3.0,,,,,-3.378321647644043,,,,
1556749459990,,,,,7.915472507476807,,2.5929996967315674,,57.03555613589401,44.172795191406856
1556749460010,,,,,8.624177932739258,-3.4525442123413086,1.2043201923370361,,53.85967868128358,
1556749460011,,,,2.909964208218932,,,,,54.01844642854053,43.994402596403745
1556749460019,,37.66208504726271,25.61376953125,,,,,,,
1556749460033,,,,,8.212362289428711,-2.882706880569458,2.6767992973327637,,53.69002019739503,43.85240665567432
1556749460052,,,,,,-1.7119064331054688,,,,
1556749460053,,,,,6.280182838439941,,5.662459850311279,1013.10986328125,51.59843527352416,43.878996688583584
1556749460058,,35.58920780031929,,,,,,,,
1556749460074,,,,,,-5.126142501831055,,,,
1556749460075,,,,2.626465796892256,7.204372882843018,,-0.8978530764579773,,68.78996335783825,
1556749460076,,,,,,,,,67.74781992446691,43.77895295725668
1556749460089,3.0,,,,,,,,,
1556749460090,,,,,6.8212890625,-4.292934894561768,0.0071828244253993034,,63.14249657469412,43.69717909141136
1556749460098,,33.53126238441815,,,,,,,,
1556749460102,,,57.822265625,,,,,,,
1556749460115,,,,,,-3.838022470474243,,,,
1556749460116,,,,,9.646533012390137,,2.6121537685394287,,51.58449827252275,44.319900116962856
1556749460133,,,,,,-2.4684972763061523,,,,
1556749460135,,,,,9.033598899841309,,5.578660488128662,,48.10035730519667,44.65410989885899
1556749460136,,,,5.697379784916415,,,,,,
1556749460138,,28.06663638851996,57.822265625,,,,,,,
1556749460152,,,,,,-1.6999350786209106,,,,
1556749460153,,,,,9.210775375366211,,6.64171838760376,1013.103271484375,45.671955262784934,44.40393057235656
1556749460175,,,,,9.569916725158691,-1.3671308755874634,7.889135360717773,,45.00668800743654,44.446272744923604
1556749460178,,26.48700682702097,,,,,,,,
1556749460179,,,57.822265625,,,,,,,
1556749460189,3.0,,,,,,,,,
1556749460196,,,,6.554462269856518,10.513260841369629,-1.9417568445205688,6.514821529388428,,,
1556749460197,,,,,,,,,45.12750722366491,44.26865687902174
1556749460214,,,,,11.411113739013672,-2.042316436767578,4.359974384307861,,42.91490842317427,44.342677944704036
1556749460221,,26.022003019109114,57.822265625,,,,,,,
1556749460231,,,,,12.373612403869629,-2.078230619430542,3.5794408321380615,,,
1556749460232,,,,,,,,,40.152257413349616,45.09290263626935
1556749460253,,,,6.492225986554846,13.515681266784668,-1.6257126331329346,3.0814316272735596,1013.110107421875,36.29911547611363,44.712119753011244
1556749460258,,32.237728078176346,,,,,,,,
1556749460280,,,,,13.316956520080566,-1.4269877672195435,2.8036959171295166,,33.35097360390432,44.042614672218654
1556749460290,3.0,,,,,,,,,
1556749460295,,,,,13.506104469299316,-2.0686533451080322,2.233858346939087,,30.746994718688256,44.51037506548851
1556749460298,,26.517185301209274,0.0,,,,,,,
1556749460313,,,,5.9892109188456475,13.549201011657715,-1.8268316984176636,1.7047237157821655,,26.467449194210246,44.84352730883024
1556749460334,,,,,,-0.8379961848258972,,,,
1556749460337,,,,,13.266676902770996,,1.252205729484558,,22.221984606143337,44.572084315680634
1556749460339,,25.42803557757388,,,,,,,,
1556749460353,,,,,11.820534706115723,-0.6033572554588318,0.1245022863149643,,17.121083220761932,44.90606160979126
1556749460354,,,,,,,,1013.101318359375,,
1556749460375,,,,4.833006135235363,,-1.4006507396697998,,,,
1556749460376,,,,,10.826910972595215,,-0.2657645046710968,,14.535984685959022,45.29765599927806
1556749460378,,25.534805322816148,0.0,,,,,,,
1556749460391,3.0,,,,,,,,,
1556749460397,5.0,,,,11.45181655883789,-2.1931557655334473,-1.2306572198867798,,8.871514146876109,44.567802788040886
1556749460418,,28.123110781214628,,,11.54279899597168,-1.6999350786209106,-1.671203851699829,,2.895898609021515,44.06177670159343
1556749460437,,,,4.938362915348709,10.477346420288086,-1.5395187139511108,-0.6057515144348145,,5.740138789802927,
1556749460438,,,,,,,,,,44.51118291321297
1556749460457,,,,,9.390345573425293,-0.8236305117607117,2.1787900924682617,,19.238144750236984,
1556749460458,,33.00260559066845,,,,,,1013.09765625,,44.51373114290762
1556749460478,,,,,8.260248184204102,-1.8651400804519653,,,,
1556749460492,5.0,,,,,,,,,
1556749460499,,,,,7.161275863647461,-3.4621214866638184,0.48843204975128174,,17.294231931316347,
1556749460501,,27.181192770866506,0.0,,,,,,,
1556749460502,,,,4.601793370826552,,,,,12.696601082096265,44.639595037816704
1556749460521,,,,,5.767807960510254,-3.04072904586792,-1.7119064331054688,,325.1534062131596,43.90938375133442
1556749460539,,33.19480804454526,,,,,,,,
1556749460544,,,,,5.8109049797058105,-4.453351020812988,-1.302485466003418,,300.5837677685197,44.16692616705165
1556749460563,,,,8.68398120340064,6.134131908416748,-7.434223175048828,-3.0814316272735596,,,
1556749460564,,,,,,,,1013.0908203125,310.73477783751974,44.40267478501893
1556749460578,,34.53964044656313,,,,,,,,
1556749460585,3.0,,,,4.867560863494873,-8.506858825683594,-5.044736862182617,,271.86117623302613,43.92106461794144
1556749460588,,,53.193359375,,,,,,,
1556749460595,3.0,,,,,,,,,
1556749460604,,,,,4.362368583679199,-8.765439987182617,-4.743058204650879,,269.1831956632475,44.259261654273
1556749460620,,29.898965796705802,53.193359375,,,,,,,
1556749460627,,,,8.557189631226226,2.906649589538574,-8.346442222595215,-3.7949256896972656,,260.1961761873173,44.484485768598944
1556749460643,,,,,1.6544438600540161,-8.274613380432129,-1.9082369804382324,,,
1556749460644,,,,,,,,,223.51116868347628,44.50111435063719
1556749460659,,25.665336894392887,53.193359375,,,,,,,
1556749460664,,,,,-0.08379961550235748,-8.614601135253906,-1.0008069276809692,1013.083251953125,253.182166136172,44.32091472501182
1556749460685,,,,,0.22506183385849,-10.362421035766602,-0.4022381603717804,,202.39622626065056,43.858397019991685
1556749460686,,,,9.450383770935906,,,,,,
1556749460695,3.0,,,,,,,,,
1556749460698,,26.396981911188455,,,,,,,,
1556749460704,,,,,1.4174107313156128,-12.605856895446777,0.5147690773010254,,101.28112542826477,44.28024240535974
1556749460724,,,,,4.6329216957092285,-13.494132995605469,1.3264282941818237,,79.45550865248828,44.81694651455304
1556749460738,,28.172058531534823,,,,,,,,
1556749460747,,,,,,-12.306572914123535,,,,
1556749460748,,,,8.591837500259148,8.528407096862793,,2.9976320266723633,,72.18219046950344,45.0059601883798
1556749460768,0.0,,,,8.985713005065918,-12.026442527770996,4.307300567626953,1013.092041015625,50.679409415036844,45.06730944294352
1556749460779,,28.0704043173316,,,,,,,,
1556749460780,,,0.0,,,,,,,
1556749460787,,,,,7.910684108734131,-10.870007514953613,5.573871612548828,,44.95096390909299,45.14951202493876
1556749460795,0.0,,,,,,,,,
1556749460808,,,,10.59693379229765,,-10.122993469238281,,,,
1556749460809,,,,,10.33129596710205,,5.9976582527160645,,45.33652808774019,45.176253010567756
1556749460818,,34.25030718590152,,,,,,,,
1556749460828,,,,,11.676877975463867,-11.478153228759766,3.9290049076080322,,52.433825465624636,
1556749460829,,,,,,,,,52.751678563934945,45.718699787505024
1556749460849,,,,,10.52283763885498,-14.087912559509277,-3.4333901405334473,,78.06090013718756,45.7075946693586
1556749460858,,37.23453391549877,,,,,,,,
1556749460869,,,50.68359375,,,,,,,
1556749460872,,,,,,-14.032844543457031,,,,
1556749460873,,,,8.310780282782803,9.014444351196289,,-6.735095024108887,1013.095947265625,87.24885011812125,45.32867950553475
1556749460890,,,,,6.253845691680908,-11.126194953918457,-5.549929141998291,,92.86217278560451,45.69672610598176
1556749460898,,33.94955500140183,50.68359375,,,,,,,
1556749460899,0.0,,,,,,,,,
1556749460912,,,,,4.039141654968262,-9.881172180175781,-3.9888617992401123,,109.97823752487375,45.40592645960813
1556749460934,,,,0.38068704863543285,4.9609375,-8.619389533996582,,,,
1556749460935,,,,,,,-2.1596357822418213,,84.95357870791679,45.06531114968358
1556749460939,,28.845423508042984,50.68359375,,,,,,,
1556749460952,2.0,,,,5.509226322174072,-6.984099388122559,-0.8691217303276062,,67.98318141307641,45.06611066667878
1556749460972,,,,,7.005648136138916,-6.876357078552246,-1.6161354780197144,1013.103515625,61.77405451410368,45.154175207187194
1556749460978,,27.29916056036073,,,,,,,,
1556749461000,2.0,,,,,,,,,
1556749461004,,,,,,-7.065505027770996,,,,
1556749461005,,,,3.223230595126627,7.063110828399658,,-2.822849988937378,,62.61743261243856,44.923092842544335
1556749461010,,,,,,-5.911464691162109,,,,
1556749461012,,,,,5.607391834259033,,,,,
1556749461013,,,,,,,-3.744645833969116,,61.24556179688483,44.53819023590594
1556749461019,,26.997030574053326,,,,,,,,
1556749461029,,,,,,-5.248250484466553,,,,
1556749461030,,,,,5.4996490478515625,,-4.7574238777160645,,48.299300225151626,44.15625017996949
1556749461051,,,,5.309235411229706,,-5.533169269561768,,,,
1556749461052,,,,,7.506051540374756,,-5.126142501831055,,43.49758503107887,44.55726070502249
1556749461058,,27.458065715264773,0.0,,,,,,,
1556749461071,,,,,,-5.715134143829346,,,,
1556749461072,,,,,7.915472507476807,,-4.096604347229004,1013.098388671875,47.51451148951719,44.87939573355466
1556749461091,,,,,,-5.5954203605651855,,,,
1556749461092,,,,,11.626598358154297,,1.0319324731826782,,44.568268409897144,44.608778490737336
1556749461098,,31.15061169616656,,,,,,,,
1556749461099,2.0,,,,,,,,,
1556749461118,,,,5.567412361102739,9.787795066833496,-4.345608711242676,,,,
1556749461119,,,,,,,-0.08619388937950134,,44.74971580029313,44.9514133022248
1556749461135,,,,,5.578660488128662,-3.972101926803589,-0.8356019258499146,,,
1556749461136,,,,,,,,,52.99720337402937,44.82341265957176
1556749461138,,30.63768297796225,,,,,,,,
1556749461139,,,0.0,,,,,,,
1556749461156,,,,,4.903474807739258,-3.8212625980377197,0.7781392931938171,,53.242051995396025,44.12521695043382
1556749461177,,,,1.0917610067027173,6.610592842102051,-5.576265811920166,-1.2976969480514526,1013.097900390625,59.846957620919625,44.159796178388845
1556749461178,,34.981491268758866,,,,,,,,
1556749461197,,,,,8.56432056427002,-7.32169246673584,-8.054340362548828,,31.668564822641372,44.43197423655747
1556749461200,2.0,,,,,,,,,
1556749461217,,,,,,-4.40067720413208,,,,
1556749461218,,33.706024546176664,,,7.055927753448486,,3.0311520099639893,,53.42788436723913,44.279877933654426
1556749461224,,,58.5009765625,,,,,,,
1556749461225,,,58.5009765625,,,,,,,
1556749461239,,,,,,-1.3743137121200562,,,,
1556749461240,,,,,6.7446722984313965,,6.873962879180908,,47.55121692611681,43.84308635438996
1556749461241,,,,9.874409718315128,,,,,,
1556749461259,,36.363935573272,58.5009765625,,,,,,,
1556749461260,,,,,9.821314811706543,-2.7462332248687744,4.173221111297607,,52.48228907288046,43.620535430560466
1556749461281,,,,,10.484529495239258,-2.8420042991638184,5.861184597015381,1013.10009765625,53.023929904251645,43.74209728199699
1556749461299,2.0,36.8296183083335,58.5009765625,,,,,,,
1556749461302,,,,9.615659466849992,9.124581336975098,-0.24661029875278473,,,,
1556749461303,,,,,,,7.221132755279541,,52.10004436616987,44.00131701561771
1556749461325,,,,,9.735121726989746,-2.102173328399658,-0.45251792669296265,,,
1556749461326,,,,,,,,,48.835357376876345,43.95093093886019
1556749461338,,35.93946532659519,58.5009765625,,,,,,,
1556749461342,,,,,8.54277229309082,-2.044710636138916,-5.087833881378174,,24.27914708414471,43.64318394816146
1556749461363,,,,,,0.07182824611663818,,,,
1556749461364,,,,,0.8810931444168091,,-4.393494129180908,,326.36053286593267,43.99149862315264
1556749461366,,,,9.997870790779459,,,,,,
1556749461378,,31.726434660641377,,,,,,,,
1556749461385,,,,,13.07274055480957,-7.915472507476807,-11.447028160095215,,10.293792612278196,44.1829414269214
1556749461387,,,,,,,,1013.1064453125,,
1556749461400,2.0,,,,,,,,,
1556749461408,,,,,11.413508415222168,-6.117372035980225,0.05027977004647255,,60.145908170701944,43.95203593921341
1556749461420,,38.82214856115106,,,,,,,,
1556749461427,,,,,8.47333812713623,-4.235472202301025,1.4150164127349854,,57.19113076971399,44.13867666714348
1556749461428,,,183.32649739583331,1.5436786032780612,,,,,,
1556749461430,,,183.32649739583331,,,,,,,
1556749461448,,,,,6.76143217086792,-5.492466449737549,-2.075836181640625,,70.53112884143627,44.42800368105669
1556749461459,,45.318866767817305,183.32649739583331,,,,,,,
1556749461468,,,,,,-6.876357078552246,,,,
1556749461469,,,,,8.243488311767578,,-3.1508655548095703,,68.65203451773903,44.6201153801316
1556749461491,,,,3.2316361039834507,9.75427532196045,-8.06391716003418,-1.3407938480377197,,62.626366499872915,
1556749461492,,,,,,,,1013.1103515625,,44.5375430644874
1556749461499,,49.468937694223925,183.32649739583331,,,,,,,
1556749461501,2.0,,,,,,,,,
1556749461512,,,,,10.087080001831055,-10.020040512084961,,,,
1556749461513,,,,,,,-2.133298873901367,,80.05802012974266,44.545260961558
1556749461531,,,,,,-8.509252548217773,,,,
1556749461532,,,,,5.600208759307861,,-1.2378400564193726,,109.03052828696698,44.19622070656782
1556749461538,,49.57925502365583,,,,,,,,
1556749461552,,,,,4.187586784362793,-7.661679267883301,,,,
1556749461553,,,,,,,-0.7110996246337891,,113.11173024058968,44.45072695276918
1556749461554,,,,3.820098184452198,,,,,,
1556749461574,,,,,5.126142501831055,-6.19159460067749,0.26337021589279175,,,
1556749461575,,,,,,,,,81.62552805369307,44.910950891573805
1556749461578,,46.13104835206084,,,,,,,,
1556749461594,,,,,6.117372035980225,-4.903474807739258,-0.25858166813850403,1013.114013671875,67.34449725397764,44.63951529906273
1556749461601,2.0,,,,,,,,,
1556749461616,,,,2.897221477244708,5.047131061553955,-4.836435317993164,-2.482862949371338,,76.38980556428476,44.309663886963044
1556749461620,,42.559082579822,,,,,,,,
1556749461623,,,0.0,,,,,,,
1556749461636,,,,,5.312895774841309,-5.207547664642334,-2.3344178199768066,,81.2678242166703,43.60997083016104
1556749461656,,,,,4.087027072906494,-6.256239891052246,-2.106961727142334,,,
1556749461657,,,,,,,,,111.38038656901819,43.81528396425624
1556749461658,,35.4152122773761,,,,,,,,
1556749461677,,,,5.754387881340292,0.967287003993988,-6.363982677459717,-2.633702278137207,,,
1556749461678,,,,,,,,,198.2263411308444,44.71421136712808
1556749461698,,32.96372139844785,,,,,,,,
1556749461699,0.0,,,,8.047157287597656,-8.758256912231445,,,,
1556749461700,,,,,,,-2.762993097305298,1013.11767578125,81.98614155130224,44.6842110184712
1556749461702,0.0,,,,,,,,,
1556749461705,,,29.987513950892858,,,,,,,
1556749461720,,,,,12.840496063232422,-6.8667802810668945,0.26815879344940186,,56.021723836632304,44.76872407231268
1556749461738,,32.182865558834784,29.987513950892858,,,,,,,
1556749461739,,,,,12.651348114013672,-6.486090660095215,-0.12929083406925201,,54.642773530003865,
1556749461740,,,,7.5946325723297115,,,,,,44.8631104725234
1556749461759,,,,,15.311387062072754,-5.604997158050537,1.4078335762023926,,49.781010727842954,
1556749461760,,,,,,,,,48.27415488372225,44.63330414052919
1556749461778,,32.61509806681523,29.987513950892858,,,,,,,
1556749461780,,,,,10.40312385559082,-4.977697372436523,-0.112530916929245,,50.86217503194263,44.656044660835335
1556749461783,,,28.023623511904763,,,,,,,
1556749461802,,,,4.5841990722516845,8.743891716003418,-5.95216703414917,-1.484450340270996,1013.115966796875,49.47006295078353,44.465262406416834
1556749461803,0.0,,,,,,,,,
1556749461818,,36.05964882497731,,,,,,,,
1556749461819,,,28.023623511904763,,,,,,,
1556749461821,,,,,10.127782821655273,-8.844450950622559,-2.8994667530059814,,60.69161979481845,
1556749461822,,,,,,,,,,44.898323213732496
1556749461842,,,,,8.933039665222168,-9.725543975830078,-1.7143007516860962,,,
1556749461843,,,,,,,,,62.49884686806877,44.986557674577426
1556749461858,,45.34930548495318,28.023623511904763,,,,,,,
1556749461864,,,,4.812322439906224,8.858817100524902,-10.30256462097168,-1.2546000480651855,,60.88992750718057,44.55952401932563
1556749461889,,,,,7.288172721862793,-10.575511932373047,1.0486923456192017,,53.61774655069257,44.442223028923
1556749461898,,47.21816912620942,,,,,,,,
1556749461903,0.0,,,,,,,,,
1556749461906,,,,,,-9.63216781616211,,,,
1556749461907,,,,,8.810931205749512,,-0.5865973234176636,1013.113525390625,52.10503381935854,45.02683099176956
1556749461924,,,,2.9245584986120896,5.016005516052246,-11.621809959411621,-0.5267404317855835,,67.4270059391514,45.55798090361647
1556749461938,,44.54985343306623,,,,,,,,
1556749461943,,,,,2.5235655307769775,-5.676825523376465,0.5099805593490601,,52.61917972422589,45.49096051583838
1556749461963,,,,,2.856369733810425,-14.600287437438965,1.9872480630874634,,45.018552046024865,45.746999265224616
1556749461978,,42.05858369904361,,,,,,,,
1556749461982,,,0.0,,,,,,,
1556749461989,,,,,,-16.41036033630371,,,,
1556749461990,,,,8.844789908907664,0.016759924590587616,,-0.33280420303344727,,187.13813006997566,46.09003777877973
1556749462004,0.0,,,,,,,,,
1556749462006,,,,,-0.2130904644727707,-18.474224090576172,-1.0606637001037598,1013.110107421875,208.41392344775522,46.049755382820074
1556749462018,,39.23333821920395,,,,,,,,
1556749462024,,,,,,-16.446273803710938,,,,
1556749462046,,,,4.531009430911912,0.6249057054519653,-8.51164722442627,-0.9529213905334473,,,
1556749462047,,,,,,,,,157.3977615736036,46.25564205032103
1556749462058,,36.018001124252926,,,,,,,,
1556749462063,,,65.92203776041666,,,,,,,
1556749462068,,,,,-0.19393625855445862,-6.560312747955322,0.3016786277294159,,350.27483344273,
1556749462069,,,,,,,,,,45.95236026474333
1556749462090,,,,,-1.0870007276535034,-5.693585395812988,-0.3782954216003418,,304.3393677742187,
1556749462091,,,,,,,,,309.34749811519845,45.578244969950994
1556749462099,,32.81457369562096,,,,,,,,
1556749462100,,,65.92203776041666,,,,,,,
1556749462104,0.0,,,,,,,,,
1556749462108,,,,6.207888525404403,0.14605076611042023,-5.432609558105469,,,,
1556749462109,,,,,,,-1.2665714025497437,1013.106689453125,316.07012888125644,45.23733436988009
1556749462129,,,,,2.0686533451080322,-5.933012962341309,1.5682499408721924,,33.22661976478054,45.726847604255646
1556749462138,,30.826815882231337,65.92203776041666,,,,,,,
1556749462142,,,0.0,,,,,,,
1556749462147,,,,,3.4525442123413086,-4.192375183105469,2.327235221862793,,19.553651678567405,
1556749462148,,,,,,,,,19.96424850052273,46.31972658610319
1556749462168,,,,,,-2.9832663536071777,,,,
1556749462169,,,,6.983184781311562,-0.8715160489082336,,1.0415095090866089,,0.6264989415368518,46.396449689641265
1556749462178,,30.20706246628022,,,,,,,,
1556749462189,,,,,-2.456526041030884,-5.312895774841309,3.9768905639648438,,3.2346343703889033,46.545845843936064
1556749462205,0.0,,,,,,,,,
1556749462211,,,,,-2.174001455307007,-5.686402797698975,5.52119779586792,1013.149169921875,4.735851679906318,46.130441544423086
1556749462218,,30.591940701831078,,,,,,,,
1556749462233,,,,4.530547620333805,-0.44533511996269226,-6.735095024108887,,,,
1556749462234,,,,,,,5.564294815063477,,9.377731909664305,45.70188438630681
1556749462257,,,,,4.477293968200684,-11.33449649810791,7.960963726043701,,18.512940877374433,45.73204331314036
1556749462258,,25.104279740752048,,,,,,,,
1556749462259,,,0.0,,,,,,,
1556749462273,,,,,8.30095100402832,-17.478206634521484,12.806976318359375,,19.545117357199445,
1556749462274,,,,,,,,,22.60124452018664,45.693770656225716
1556749462293,,,,,,-19.867692947387695,,,,
1556749462294,,,,14.870586349532632,6.486090660095215,,11.736735343933105,,23.54114172923022,45.658778670139036
1556749462298,,24.77607634997316,,,,,,,,
1556749462305,0.0,,,,,,,,,
1556749462314,,,,,-0.4668835997581482,-5.6887969970703125,,,,
1556749462315,,,,,,,-0.22506183385849,1013.132080078125,284.841213090205,45.86104040190987
1556749462335,,,,,,-8.435029983520508,,,,
1556749462338,,35.22745112696216,0.0,,,,,,,
1556749462340,,,,,-0.8978530764579773,,2.724684715270996,,5.193666453367598,46.37507121317452
1556749462357,,,,9.196547017809523,-2.478074312210083,-10.49410629272461,-5.482889175415039,,317.60384102919363,46.36528802111495
1556749462376,,,,,-2.5211713314056396,-10.977749824523926,-6.529187202453613,,317.0305012898844,46.084062780746244
1556749462378,,29.73663659866588,,,,,,,,
1556749462397,,,,,6.158074855804443,-12.778244972229004,1.7454262971878052,,48.936970101158636,45.53533514735356
1556749462405,0.0,,,,,,,,,
1556749462418,,28.97368973446654,,,,,,,,
1556749462419,,,0.0,,2.8013014793395996,-8.13335132598877,-1.4557191133499146,1013.125,80.3308656965171,45.44488045269502
1556749462422,,,,3.316967955918969,,,,,,
1556749462442,,,,,-0.34477555751800537,-6.620169639587402,-1.9489396810531616,,250.8720527249011,45.998403232027975
1556749462458,,23.848223913438403,,,,,,,,
1556749462460,,,,,2.0016138553619385,-7.324086666107178,-3.7685885429382324,,35.5757779524418,46.190218121876065
1556749462482,,,,6.379962261411211,5.909070014953613,-6.730306625366211,-3.3352248668670654,,32.039720717234445,45.49333338018232
1556749462498,,25.882253237098688,,,,,,,,
1556749462502,,,,,5.195576190948486,-5.363175392150879,0.4860377907752991,,34.78868744305703,45.16744881501046
1556749462505,0.0,,,,,,,,,
1556749462522,,,,,3.033546209335327,-5.482889175415039,3.064671754837036,,,
1556749462523,,,,,,,,1013.1416015625,26.56658085227656,45.44856235307728
1556749462538,,35.957520306395104,0.0,,,,,,,
1556749462544,,,,3.735167479124187,1.5562785863876343,-5.870761871337891,-0.2705530524253845,,81.1842363616077,45.68321364666248
1556749462564,,,,,-1.6328954696655273,-9.883566856384277,-3.342407703399658,,260.88903057672337,45.51220258883499
1556749462578,,37.04962893409316,,,,,,,,
1556749462585,,,,,1.5371243953704834,-10.362421035766602,-3.5483152866363525,,156.91997618078284,45.43711713289467
1556749462606,0.0,,,,,,,,,
1556749462607,,,,2.8624118041731736,4.893897533416748,-7.498868465423584,-2.2218871116638184,,60.74319455324121,
1556749462608,,,,,,,,,60.53700480257686,46.15173858741035
1556749462618,,30.661980522853124,,,,,,,,
1556749462624,,,200.8935546875,,,,,,,
1556749462631,,,,,2.516382932662964,-6.699181079864502,-2.8108785152435303,1013.12060546875,86.29701544595576,45.799262796403355
1556749462647,,,,,1.2569942474365234,-6.328068256378174,-2.8084843158721924,,124.59695287715459,
1556749462648,,,,,,,,,,45.34074730105815
1556749462658,,37.721958443610816,200.8935546875,,,,,,,
1556749462669,,,,,0.5339232683181763,-15.629825592041016,-1.3168511390686035,,160.61045033274578,
1556749462671,,,,6.529338648254795,,,,,,45.72113914726408
1556749462689,,,,,6.548341751098633,-14.789435386657715,,,,
1556749462690,,,,,,,-3.526766777038574,,77.73788000077013,45.33864429617371
1556749462698,,35.12469145874862,,,,,,,,
1556749462699,,,200.8935546875,,,,,,,
1556749462706,0.0,,,,,,,,,
1556749462709,,,,,4.9753031730651855,-11.95461368560791,-1.9082369804382324,,77.3197084990253,44.680947025810276
1556749462731,,,,,,-9.981731414794922,,,,
1556749462732,,,,5.61508780379359,1.0965778827667236,,2.4948344230651855,1013.110107421875,77.33887400983633,44.8129719633268
1556749462738,,38.511379720886595,,,,,,,,
1556749462751,,,,,-1.2881197929382324,-10.484529495239258,2.3128695487976074,,332.08045088069775,45.251497080280025
1556749462772,,,,,0.7925049662590027,-13.52525806427002,2.3727264404296875,,8.87992467106534,45.18573596364695
1556749462778,,35.595144970407496,,,,,,,,
1556749462793,,,,10.988726300754362,6.043149471282959,-16.02727508544922,3.217905282974243,,40.717759510586234,44.726608944589024
1556749462807,0.0,,,,,,,,,
1556749462816,,,,,4.963331699371338,-14.559585571289062,2.008796453475952,,47.346785949163745,44.34840022236113
1556749462818,,27.79210663177851,,,,,,,,
1556749462825,,,62.544873918805806,,,,,,,
1556749462833,,,,,3.007209062576294,-14.380014419555664,0.7829278707504272,1013.115966796875,57.82776245696709,44.66878094840882
1556749462855,,,,8.950869930334461,3.0790374279022217,-15.651374816894531,1.80049467086792,,42.72231416405282,45.072141466059925
1556749462858,,29.503988019712267,62.544873918805806,,,,,,,
1556749462875,,,,,3.718308687210083,-13.793416976928711,2.3631491661071777,,38.68698034580137,45.189280370869085
1556749462896,,,,,4.182797908782959,-12.591490745544434,-2.3439950942993164,,88.52034447363246,44.36970551166728
1556749462898,,31.202782056067676,62.544873918805806,,,,,,,
1556749462899,,,0.0,,,,,,,
1556749462907,0.0,,,,,,,,,
1556749462917,,,,5.183765215937624,4.53236198425293,-12.50290298461914,-2.3416006565093994,,83.5158170574399,43.607288060477245
1556749462935,,,,,2.569056987762451,-14.21241569519043,-1.9609110355377197,,101.3019575052333,
1556749462936,,,,,,,,1013.095703125,,44.28341250525943
1556749462939,,42.97027858562302,,,,,,,,
1556749462955,,,,,-0.35195839405059814,-15.153365135192871,-1.6065584421157837,,179.77352959645705,45.20246304480294
1556749462977,,,,5.000894847903239,-3.038334846496582,-13.0009126663208,0.011971374042332172,,277.57896664386476,
1556749462978,,41.70309006256839,,,,,,,,45.118004302011755
1556749462982,,,207.2998046875,,,,,,,
1556749462983,,,207.2998046875,,,,,,,
1556749462999,,,,,-2.1572415828704834,-11.432662010192871,-7.446194648742676,,267.9402378380886,45.262831664493945
1556749463007,0.0,,,,,,,,,
1556749463016,,,,,0.6656084060668945,-10.23073673248291,-3.469304084777832,,136.99833610784998,45.69999561904953
1556749463018,,48.195549919602946,207.2998046875,,,,,,,
1556749463035,,,,1.31476524694393,0.24661029875278473,-8.87318229675293,,,,
1556749463036,,,,,,,0.41660380363464355,1013.094970703125,116.48225101107255,45.65625372066289
1556749463056,,,,,,-8.916279792785645,,,,
1556749463057,,,,,1.228263020515442,,2.1931557655334473,,14.535588534987198,45.986819000494165
1556749463058,,42.48310246967662,207.2998046875,,,,,,,
1556749463091,,,,,2.4972286224365234,-8.988107681274414,-0.43336373567581177,,56.06394123589217,46.28120097764103
1556749463100,,,,8.142386745547187,1.5299415588378906,-6.986494064331055,-5.15247917175293,,18.58361967490572,46.455694360369094
1556749463101,,34.803272906847546,207.2998046875,,,,,,,
1556749463104,,,304.58984375,,,,,,,
1556749463107,0.0,,,,,,,,,
1556749463120,,,,,1.2474172115325928,-5.265010356903076,-2.889889717102051,,25.609227387261683,46.439147426402435
1556749463137,,,,,,-5.676825523376465,,,,
1556749463138,,,,,2.2745611667633057,,-0.13886794447898865,1013.096923828125,31.833155306165793,46.37324634736251
1556749463139,,33.500410082351294,304.58984375,,,,,,,
1556749463161,,,,5.71012653484538,-0.26337021589279175,-4.992063045501709,-0.5913859009742737,,248.06528893832194,46.35903568982812
1556749463178,,28.041981759293986,304.58984375,,,,,,,
1556749463184,,,,,,-3.404658794403076,,,,
1556749463185,,,,,-0.6488484740257263,,-0.07422251999378204,,322.59766212386216,46.45949247508542
1556749463197,,,,,,-2.5522968769073486,,,,
1556749463198,,,,,-2.1548473834991455,,0.07901106774806976,,349.20489028566305,46.00313886974274
1556749463207,0.0,,,,,,,,,
1556749463218,,25.012735652886576,,,,,,,,
1556749463219,,,,,,-3.349590539932251,,,,
1556749463220,,,,,-2.20033860206604,,0.706311047077179,,352.0893876014125,45.91834776772361
1556749463222,,,,6.754403832343096,,,,,,
1556749463240,,,,,-1.8268316984176636,-4.45095682144165,2.973689317703247,1013.1123046875,358.7891200515563,46.38822604440895
1556749463258,,22.255392993362392,,,,,,,,
1556749463259,,,0.0,,,,,,,
1556749463261,,,,,,-6.167652130126953,,,,
1556749463262,,,,,-2.0878076553344727,,6.172440528869629,,1.8361394774504447,45.90113537871396
1556749463284,,,,11.396601361064087,-2.3056867122650146,-9.706390380859375,13.609058380126953,,2.856358003586081,45.46416336626395
1556749463298,,25.006606568701258,,,,,,,,
1556749463302,,,,,,-14.02566146850586,,,,
1556749463303,,,,,0.8044763207435608,,12.768667221069336,,5.176102621916925,45.542489353640846
1556749463306,0.0,,,,,,,,,
1556749463322,,,,,,-20.46626091003418,,,,
1556749463323,,,,,3.0910086631774902,,11.432662010192871,,12.55845452971721,45.996916887514224
1556749463338,,30.599427458962502,,,,,,,,
1556749463343,,,,,,-15.785453796386719,,,,
1556749463344,,,,,0.2490045726299286,,5.095016956329346,,13.73405388305514,45.614443747689215
1556749463346,,,,6.890240786127892,,,,1013.123046875,,
1556749463365,,,,,-5.394300937652588,-9.079090118408203,1.831620216369629,,344.3976298317579,
1556749463366,,,,,,,,,,45.31493835482908
1556749463378,,36.33262114972835,0.0,,,,,,,
1556749463384,,,,,,-10.71198558807373,,,,
1556749463385,,,,,-6.397502422332764,,2.2721667289733887,,343.5782547257138,45.83626963019136
1556749463406,0.0,,,8.364997926336693,-4.158855438232422,-14.164529800415039,-3.2729737758636475,,317.6661562600862,45.96313272860164
1556749463418,,29.514636291174654,,,,,,,,
1556749463425,,,,,,-10.905921936035156,,,,
1556749463426,,,,,0.011971374042332172,,-2.4325830936431885,,248.78224706530898,46.17720064451242
1556749463447,,,,,2.753416061401367,-7.264229774475098,-1.3288224935531616,,49.85687363895431,45.96278104649806
1556749463448,,,,,,,,1013.127197265625,,
1556749463459,,33.55085271441245,,,,,,,,
1556749463464,,,345.078125,,,,,,,
1556749463468,,,345.078125,,,,,,,
1556749463472,,,,4.880717128529445,2.5020172595977783,-5.755836486816406,-0.5626545548439026,,46.280969080129125,
1556749463473,,,,,,,,,43.647733079603256,45.57271571916542
1556749463489,,,,,3.7063374519348145,-5.6265459060668945,-0.9217957854270935,,30.339898368682555,46.18881546556005
1556749463498,,29.94411680681313,345.078125,,,,,,,
1556749463507,0.0,,,,,,,,,
1556749463509,,,,,,-7.743084907531738,,,,
1556749463510,,,,,1.812466025352478,,-3.6488747596740723,,16.309824086999072,45.953339444688666
1556749463531,,,,,,-13.776657104492188,,,,
1556749463532,,,,8.86784654764493,5.106987953186035,,-5.815693378448486,,32.312248680212576,45.44099777837538
1556749463538,,29.607584084401367,345.078125,,,,,,,
1556749463539,,,0.0,,,,,,,
1556749463554,,,,,6.323279857635498,-14.013689994812012,2.6456737518310547,1013.147216796875,34.643573243950925,45.55742676699994
1556749463573,,,,,2.9210152626037598,-10.30495834350586,,,,
1556749463578,,35.58115384467214,,,,,,,,
1556749463593,,,,,,-6.627352714538574,,,,
1556749463594,,,,4.044463510666319,-1.5490957498550415,,0.3016786277294159,,306.53039683731043,44.63709642392456
1556749463606,0.0,,,,,,,,,
1556749463614,,,,,-3.3687446117401123,-4.405465602874756,-3.4262073040008545,,329.2772900189057,45.108905915728954
1556749463618,,31.881691459221617,,,,,,,,
1556749463634,,,,,,-6.505244731903076,,,,
1556749463635,,,,,0.14605076611042023,,-1.7789461612701416,,170.1324580357956,45.59770817829165
1556749463656,,,,,,-9.603436470031738,,,,
1556749463657,,,,2.0489895214298786,2.7414445877075195,,0.09337671846151352,1013.12744140625,165.0517808405466,45.56726482954354
1556749463658,,30.425413602370625,,,,,,,,
1556749463662,,,217.67578125,,,,,,,
1556749463677,,,,,,-9.308940887451172,,,,
1556749463678,,,,,1.5706442594528198,,-0.11013664305210114,,74.79311907220006,45.32240348496329
1556749463698,,31.510698603303744,217.67578125,,,,,,,
1556749463699,,,,,-0.19872480630874634,-8.226728439331055,-0.931372880935669,,191.68239152856847,44.81682694726478
1556749463707,0.0,,,,,,,,,
1556749463720,,,,,,-8.379961967468262,,,,
1556749463722,,,,1.5009249378626168,0.1412622183561325,,-1.582615613937378,,166.91375871018377,44.5703485088447
1556749463738,,23.134403459343716,217.67578125,,,,,,,
1556749463739,,,0.0,,,,,,,
1556749463742,,,,,1.8842942714691162,-9.672870635986328,,,,
1556749463743,,,,,,,-0.5027977228164673,,83.26315469966278,44.65330306746441
1556749463762,,,,,,-10.484529495239258,,,,
1556749463763,,,,,2.418217658996582,,2.3439950942993164,1013.110107421875,29.142958943056612,44.66910183733116
1556749463778,,21.103606278580777,,,,,,,,
1556749463782,,,,,,-9.66089916229248,,,,
1556749463783,,,,6.852159880777614,1.2043201923370361,,4.0439300537109375,,6.441262830746609,44.30982622674278
1556749463804,,,,,1.5227587223052979,-11.873208999633789,0.18675343692302704,,66.16284037661961,43.908072902115386
1556749463806,0.0,,,,,,,,,
1556749463818,,24.555759295575438,0.0,,,,,,,
1556749463823,,,,,,-14.461420059204102,,,,
1556749463824,,,,,5.549929141998291,,2.913832426071167,,36.86251045999131,43.263202504306726
1556749463845,,,,10.988424626353087,7.659285068511963,-14.636201858520508,2.9928436279296875,,39.30653997522404,43.827812366291816
1556749463858,,29.366601832087067,,,,,,,,
1556749463864,,,,,,-13.099077224731445,,,,
1556749463865,,,,,5.861184597015381,,2.6217308044433594,1013.1044921875,37.61988281629732,44.16281067372634
1556749463885,,,,,,-14.700847625732422,,,,
1556749463886,,,,,3.6392977237701416,,3.251425266265869,,25.12334309763264,44.009661298825414
1556749463898,,29.192266760422676,,,,,,,,
1556749463907,0.0,,,9.121672559257995,4.403071403503418,-12.93387222290039,4.192375183105469,,21.905745140024464,44.166520491478835
1556749463936,,,,,5.4373979568481445,-11.356045722961426,-0.90024733543396,,60.503400271860414,44.07419555625804
1556749463939,,34.04484342322868,,,,,,,,
1556749463940,,,0.0,,,,,,,
1556749463944,,,,,5.693585395812988,-14.499728202819824,-2.8443984985351562,,74.97086108497126,
1556749463945,,,,,,,,,73.35468806318454,44.10036468417362
1556749463965,,,,,1.484450340270996,-17.229202270507812,-2.3152637481689453,,120.46981107117438,43.77003136495784
1556749463966,,,,,,,,1013.109130859375,,
1556749463967,,,,7.737545219129023,,,,,,
1556749463978,,44.175175599971325,,,,,,,,
1556749463985,,,,,-2.3080809116363525,-17.79664421081543,-1.9273911714553833,,220.48217103187244,43.16285726958497
1556749464005,,,,,,-13.716800689697266,,,,
1556749464006,,,,,-3.0167863368988037,,0.8786988258361816,,287.9909206750105,43.44973565461725
1556749464009,0.0,,,,,,,,,
1556749464018,,50.97690232314005,,,,,,,,
1556749464025,,,60.8740234375,,,,,,,
1556749464026,,,60.8740234375,,,,,,,
1556749464027,,,,,,-12.639376640319824,,,,
1556749464028,,,,5.648343962637515,-3.2083282470703125,,3.8260512351989746,,325.97552876279735,43.753165017988614
1556749464046,,,,,0.04070267081260681,-11.839689254760742,-4.525179386138916,,149.69216071804863,44.009171234861824
1556749464058,,46.65945212303179,60.8740234375,,,,,,,
1556749464068,,,,,0.06703969836235046,-9.5435791015625,-3.6800003051757812,1013.106689453125,144.1231113367654,44.41722468554659
1556749464088,,,,,,-8.78219985961914,,,,
1556749464089,,,,2.8451663671566405,-0.009577099233865738,,-0.572231650352478,,176.2745876091996,45.60359041973258
1556749464098,,37.49208902462554,60.8740234375,,,,,,,
1556749464111,0.0,,,,0.9960182905197144,-7.314509391784668,1.4365649223327637,,16.968151870150734,45.889018166081065
1556749464129,,,,,,-6.454965114593506,,,,
1556749464130,,,,,0.38547825813293457,,-4.575459003448486,,8.168537417120092,45.330824785377814
1556749464138,,48.18271995425411,,,,,,,,
1556749464153,,,,,0.8427847623825073,-6.213143348693848,-5.463735103607178,,4.6996465546633885,
1556749464155,,,,9.124134597501305,,,,,2.4478926275386357,45.44646563442377
1556749464171,,,,,,-5.9976582527160645,,,,
1556749464172,,,,,0.7015225291252136,,-2.322446584701538,1013.093505859375,14.751340550489545,45.505202440443014
1556749464178,,38.85426194954182,,,,,,,,
1556749464192,,,,,,-4.364762783050537,,,,
1556749464193,,,,,-0.6105400919914246,,-1.0367209911346436,,317.65378337240475,45.3700779321887
1556749464211,0.0,,,,,,,,,
1556749464214,,,,,,-2.853975534439087,,,,
1556749464215,,,,7.218329347186447,-1.702329397201538,,0.37590113282203674,,347.4775473973979,45.753256192043416
1556749464218,,33.434472246232446,,,,,,,,
1556749464224,,,0.0,,,,,,,
1556749464235,,,,,-2.4732859134674072,-2.382303476333618,-0.026337023824453354,,351.27237403327393,46.087653027645985
1556749464256,,,,,-2.794118642807007,-3.2777621746063232,1.599375605583191,,356.54068292832557,45.26628934070844
1556749464258,,33.47268267616648,,,,,,,,
1556749464277,,,,5.277055508007731,-2.636096477508545,-5.032765865325928,,,,
1556749464278,,,,,,,4.872349262237549,,,
1556749464279,,,,,,,,1013.111328125,357.03351778920876,45.28187685537571
1556749464298,,24.48331164901118,,,,,,,,
1556749464303,,,,,-2.391880512237549,-7.848433017730713,9.608224868774414,,4.705211878176499,44.83995283917244
1556749464305,,,49.1015625,,,,,,,
1556749464311,0.0,,,,,,,,,
1556749464319,,,,,-1.0774236917495728,-12.64177131652832,15.09350872039795,,7.022029547004536,44.26194719444994
1556749464338,,27.697368450341603,49.1015625,,,,,,,
1556749464340,,,,10.690604489598675,,-15.69447135925293,,,,
1556749464341,,,,,3.6153550148010254,,10.71437931060791,,15.57678086451665,44.3398785471253
1556749464360,,,,,3.1460771560668945,-17.178922653198242,10.501289367675781,,18.601893846030066,45.08368116007735
1556749464378,,31.982896592267032,49.1015625,,,,,,,
1556749464380,,,,,-2.9210152626037598,-13.43188190460205,2.949746608734131,,357.1629441110084,
1556749464381,,,,,,,,1013.121826171875,354.95320566567614,45.01855586924674
1556749464403,,,,10.60155242492152,-8.518829345703125,-14.708029747009277,3.4812755584716797,,348.05899371747824,44.88461237783062
1556749464412,0.0,,,,,,,,,
1556749464418,,31.79788643953024,,,,,,,,
1556749464422,,,,,-6.993676662445068,-14.976188659667969,,,,
1556749464423,,,,,,,1.1755889654159546,,339.8199397198197,45.69046198981416
1556749464443,,,,,-1.2809370756149292,-8.846845626831055,-6.778192043304443,,335.70479172602205,45.173824498574774
1556749464458,,36.74227328444526,,,,,,,,
1556749464461,,,0.0,,,,,,,
1556749464466,,,,5.934933077427657,1.1109435558319092,-5.207547664642334,-1.891477108001709,,353.32977940987763,44.54990698407162
1556749464488,,,,,1.3719195127487183,-7.185218811035156,-0.25139886140823364,,96.26280102994878,44.44331475267622
1556749464489,,,,,,,,1013.132568359375,,
1556749464498,,36.3449486358517,,,,,,,,
1556749464505,,,,,,-9.201197624206543,,,,
1556749464506,,,,,4.905869007110596,,-3.4884583950042725,,24.339020522408987,44.95077069768575
1556749464511,0.0,,,,,,,,,
1556749464528,,,,,4.2282891273498535,-10.28101634979248,-7.506051540374756,,3.5198400182401883,
1556749464529,,,,,,,,,8.362961313165442,45.32863901424158
1556749464530,,,,9.577981621072038,,,,,,
1556749464538,,33.74833208742104,,,,,,,,
1556749464548,,,,,5.956955909729004,-12.699234008789062,,,,
1556749464549,,,,,,,-3.632114887237549,,40.02291412103705,45.18939994192453
1556749464569,,,,,,-12.670502662658691,,,,
1556749464571,,,,,5.01121711730957,,3.8045027256011963,,30.032710610761228,45.3562698496554
1556749464578,,36.16009004192629,,,,,,,,
1556749464583,,,38.76953125,,,,,,,
1556749464591,,,,4.664812037370224,,-9.397528648376465,,,,
1556749464592,,,,,1.7621862888336182,,4.563488006591797,1013.127685546875,31.538722926519426,44.93218627612596
1556749464611,,,,,,-5.643305778503418,,,,
1556749464612,0.0,,,,-1.7765519618988037,,-2.109356164932251,,299.42409727009994,44.76229090815897
1556749464618,,41.0173575722958,38.76953125,,,,,,,
1556749464632,,,,,-3.004814863204956,-4.103786945343018,-5.061496734619141,,335.7417959833979,45.13344069690888
1556749464653,,,,3.7924715103155586,0.7158881425857544,-6.0623040199279785,-0.0023942748084664345,,81.02671853896885,44.64645046395578
1556749464658,,27.829452633739923,38.76953125,,,,,,,
1556749464674,,,,,4.283357620239258,-10.221158981323242,2.166818618774414,,,
1556749464675,,,,,,,,,40.14814563946925,44.11097786344424
1556749464694,,,,,2.2506182193756104,-9.75188159942627,,,,
1556749464695,,,,,,,1.2258687019348145,1013.127685546875,46.295373949088685,44.282192907198166
1556749464698,,35.61964452917689,,,,,,,,
1556749464712,0.0,,,,,,,,,
1556749464715,,,,1.6778977906262866,0.33998700976371765,-8.200390815734863,-1.1516461372375488,,158.28087771252956,44.26007496483565
1556749464735,,,,,0.9385557174682617,-8.509252548217773,-1.8890827894210815,,137.20671151904872,43.8161868662523
1556749464738,,29.005686860844506,,,,,,,,
1556749464745,,,3082.685546875,,,,,,,
1556749464756,,,,,,-9.967366218566895,,,,
1556749464757,,,,,2.0686533451080322,,0.2849186956882477,,65.54810969094012,43.94314781153545
1556749464778,,,,,,-9.387951850891113,,,,
1556749464779,,24.17826488601053,3082.685546875,4.881660801675715,1.733454942703247,,2.286532402038574,,,
1556749464780,,,,,,,,,25.592529282288297,44.30925781020995
1556749464798,,,,,,-8.32249927520752,,,,
1556749464799,,,,,-0.4716721475124359,,0.8906702399253845,1013.0859375,331.96838625943803,43.74740458516815
1556749464812,0.0,,,,,,,,,
1556749464818,,26.154860203616344,,,,,,,,
1556749464819,,,3082.685546875,,,,,,,
1556749464820,,,,,0.7733507752418518,-11.063943862915039,-0.742225170135498,,123.81357116048915,
1556749464821,,,,,,,,,120.97222612614217,44.01628662225719
1556749464844,,,,9.620041796302013,6.114977836608887,-14.4829683303833,3.0886144638061523,,40.092827937381344,44.1987047697655
1556749464859,,27.638314870151838,3082.685546875,,,,,,,
1556749464863,,,,,5.827664852142334,-13.858062744140625,1.161223292350769,,51.65497899456807,43.77919991530224
1556749464883,,,,,4.034353256225586,-13.35287094116211,1.1564347743988037,,49.12266245412377,
1556749464884,,,,,,,,,48.352476662934805,43.309277171293054
1556749464899,,25.936483053020204,,,,,,,,
1556749464903,,,,,,-14.21480941772461,,,,
1556749464904,,,,8.335735686843602,3.536343812942505,,2.822849988937378,1013.08642578125,46.898568445260025,43.50479976287487
1556749464913,0.0,,,,,,,,,
1556749464923,,,,,3.8284454345703125,-14.528459548950195,1.9369683265686035,,,
1556749464924,,,,,,,,,38.52538148513344,44.089630009463
1556749464939,,28.404091119584756,0.0,,,,,,,
1556749464940,,,,,3.5531039237976074,-11.449421882629395,1.7119064331054688,,,
1556749464941,,,,,,,,,37.70329308644153,43.703812105963756
1556749464961,,,,,4.522785186767578,-11.312948226928711,-1.242628574371338,,68.81234588774839,43.79461517635274
1556749464963,,,,5.279031863319299,,,,,,
1556749464978,,26.555380514220023,,,,,,,,
1556749464982,,,,,,-13.71201229095459,,,,
1556749464983,,,,,4.156461238861084,,0.112530916929245,,59.195664932613056,44.589243536224004
1556749465001,,,,,,-15.768693923950195,,,,
1556749465002,,,,,0.9648927450180054,,-0.1364736706018448,,,
1556749465003,,,,,,,,1013.08642578125,78.22148471476373,44.397768028193944
1556749465016,0.0,,,,,,,,,
1556749465018,,36.10923238411363,,,,,,,,
1556749465028,,,67.470703125,,,,,,,
1556749465035,,,,6.725679452599647,-2.4589202404022217,-15.86446475982666,-2.111750364303589,,223.6206975970066,44.30487090341344
1556749465044,,,,,-1.8866885900497437,-13.151751518249512,-1.8388030529022217,,224.67493729539808,44.56404736592375
1556749465062,,,,,-3.5483152866363525,-11.52364444732666,2.351177930831909,,314.4246372724574,44.451779605066996
1556749465066,,41.451260302368375,67.470703125,,,,,,,
1556749465084,,,,5.878402049599728,-0.8547561168670654,-12.007287979125977,-4.27138614654541,,,
1556749465085,,,,,,,,,191.21580764598662,45.04417697425186
1556749465098,,42.56749262627999,67.470703125,,,,,,,
1556749465107,,,,,-0.6416656374931335,-9.677659034729004,-1.5706442594528198,,205.49501478519358,45.08020626907968
1556749465109,,,,,,,,1013.09765625,,
1556749465116,0.0,,,,,,,,,
1556749465125,,,,,-1.0774236917495728,-8.59305191040039,-1.6999350786209106,,,
1556749465138,,39.054415461721476,67.470703125,,,,,,,
1556749465150,,,,2.1942944321146993,0.3232271075248718,-7.3336639404296875,2.355966329574585,,,
1556749465151,,,,,,,,,2.6730476790939974,45.58874886698752
1556749465153,,,58.695068359375,,,,,,,
1556749465167,,,,,0.4788549542427063,-6.548341751098633,-2.5906052589416504,,2.9834654761624506,45.79415071969252
1556749465179,,43.121833313960245,58.695068359375,,,,,,,
1556749465185,,,,,,-6.75185489654541,,,,
1556749465186,,,,,0.8475732803344727,,-4.867560863494873,,9.539884869428647,45.66335079590337
1556749465205,,,,8.378987743630502,,,,,,
1556749465207,,,,,0.5937801599502563,-6.222720146179199,-2.1620302200317383,,359.63155686444617,45.22085552229216
1556749465208,,,,,,,,1013.067626953125,,
1556749465217,0.0,,,,,,,,,
1556749465218,,38.16643413704576,58.695068359375,,,,,,,
1556749465222,,,48.095703125,,,,,,,
1556749465228,,,,,-0.06943397223949432,-5.502043724060059,-1.362342357635498,,355.90054308516,45.75073765300726
1556749465246,,,,,-1.0127782821655273,-4.350397109985352,-0.7039167881011963,,,
1556749465247,,,,,,,,,321.8741675058394,46.11728673517441
1556749465258,,32.42448882662513,48.095703125,,,,,,,
1556749465267,,,,7.210888830415386,-1.7071179151535034,-3.3064935207366943,,,,
1556749465268,,,,,,,-0.4597007632255554,,342.80977306672276,46.211255756016634
1556749465288,,,,,-2.353572130203247,-2.382303476333618,0.7829278707504272,,353.0220926212601,46.17685115935186
1556749465298,,33.48708750158813,48.095703125,,,,,,,
1556749465303,,,43.06640625,,,,,,,
1556749465308,,,,,-2.7701759338378906,-3.8212625980377197,,,,
1556749465309,,,,,,,2.2482240200042725,1013.067626953125,356.6729245687237,45.763166470402815
1556749465318,0.0,,,,,,,,,
1556749465330,,,,4.149459454366043,-1.6951465606689453,-6.193988800048828,5.102199554443359,,3.6194094487435677,
1556749465331,,,,,,,,,,45.640639765992034
1556749465338,,26.40363673807955,43.06640625,,,,,,,
1556749465350,,,,,-1.4221992492675781,-9.651321411132812,14.516488075256348,,,
1556749465351,,,,,,,,,5.567867331670016,45.90313706130818
1556749465371,,,,,0.1771763414144516,-14.770280838012695,13.807783126831055,,8.576141762445275,
1556749465372,,,,,,,,,,45.986389880788465
1556749465378,,28.416633875395107,43.06640625,,,,,,,
1556749465392,,,,14.067668863424975,4.491659641265869,-19.764738082885742,11.152531623840332,,17.211354415927417,
1556749465393,,,,,,,,,,45.72854064813404
1556749465414,,,,,0.8332076072692871,-15.1461820602417,5.169239521026611,,19.926373394027678,
1556749465415,,,,,,,,1013.07666015625,,45.6509298388909
1556749465418,,31.55989091818163,43.06640625,,,,,,,
1556749465419,0.0,,,,,,,,,
1556749465433,,,,,-6.466936111450195,-9.103033065795898,2.176395893096924,,346.366378926048,
1556749465434,,,,,,,,,344.83263604225954,45.7366090025459
1556749465455,,,,6.961626594591906,-6.043149471282959,-10.59227180480957,,,,
1556749465456,,,,,,,4.245048999786377,,350.0750999283787,45.63523400160719
1556749465458,,33.91914992503153,,,,,,,,
1556749465475,,,,,-2.8108785152435303,-13.343293190002441,-2.145270347595215,,302.6523520303606,
1556749465476,,,,,,,,,302.63949078415345,45.127898490709775
1556749465496,,,,,-3.162837028503418,-10.357632637023926,-2.82045578956604,,314.67509347913256,45.30262284235638
1556749465498,,32.1464804593603,,,,,,,,
1556749465502,,,44.8388671875,,,,,,,
1556749465518,,,,5.5660082437205425,0.30886146426200867,-7.474925994873047,,,,
1556749465519,,,,,,,-3.198751211166382,1013.09912109375,312.6937136575198,45.48280926324322
1556749465520,0.0,,,,,,,,,
1556749465538,,,,,1.3575538396835327,-7.848433017730713,,,,
1556749465539,,33.76222203342024,44.8388671875,,,,-0.023942748084664345,,86.3983891136171,
1556749465540,,,,,,,,,82.70066813094473,45.26859625721118
1556749465559,,,,,4.051113128662109,-7.817307472229004,-3.3232533931732178,,,
1556749465560,,,,,,,,,27.305071150622098,44.980033815099
1556749465578,,30.981255167466575,44.8388671875,,,,,,,
1556749465585,,,,7.973105283854694,4.115758419036865,-8.978530883789062,-5.906675815582275,,13.969386343360611,45.3555925628337
1556749465603,,,,,5.928224563598633,-12.646559715270996,,,,
1556749465604,,,,,,,-4.474899768829346,,38.63954809711021,45.721770988353875
1556749465618,,35.26183836655371,,,,,,,,
1556749465621,0.0,,,,,,,,,
1556749465622,,,,,5.042342662811279,-12.876409530639648,4.398283004760742,,28.646991586665308,45.67994028294847
1556749465623,,,,,,,,1013.09912109375,,
1556749465644,,,,,1.6472610235214233,-9.553156852722168,4.082238674163818,,14.906030674811973,45.6871111226536
1556749465646,,,,4.361870820327289,,,,,,
1556749465658,,37.96746756045104,,,,,,,,
1556749465665,,,,,-2.0327394008636475,-5.921041488647461,-3.0550947189331055,,297.5842492133736,45.390702303759234
1556749465685,,,,,-3.0263633728027344,-4.122941017150879,-3.038334846496582,,,
1556749465686,,,,,,,,,317.39941005224057,45.07797033215471
1556749465698,,28.75968296307098,,,,,,,,
1556749465702,,,352.1728515625,,,,,,,
1556749465707,,,,,1.211503028869629,-6.87156867980957,0.8499675393104553,,40.85691095454689,44.7524764105472
1556749465708,,,,3.4726638021483542,,,,,,
1556749465721,0.0,,,,,,,,,
1556749465728,,,,,3.1388943195343018,-9.656110763549805,1.1277034282684326,,47.31502215442862,44.59969933696002
1556749465729,,,,,,,,1013.08740234375,,
1556749465739,,32.18357890284734,352.1728515625,,,,,,,
1556749465747,,,,,,-9.529213905334473,,,,
1556749465748,,,,,1.242628574371338,,-0.32801565527915955,,93.16415593937825,44.73272381987388
1556749465771,,,,,-0.026337023824453354,-8.0399751663208,-1.8579572439193726,,,
1556749465772,,,,1.7382971602151096,,,,,180.19537938244105,44.419901061074526
1556749465778,,31.599557541273068,352.1728515625,,,,,,,
1556749465779,,,0.0,,,,,,,
1556749465790,,,,,0.9433442950248718,-8.882759094238281,,,,
1556749465791,,,,,,,-0.48124924302101135,,104.81823451260425,44.33106850873884
1556749465809,,,,,,,,,102.61519114676247,
1556749465810,,,,,1.5706442594528198,-10.058348655700684,0.019154198467731476,,72.85911685776506,44.533219496717614
1556749465818,,26.44481016193888,,,,,,,,
1556749465821,0.0,,,,,,,,,
1556749465831,,,,,,-9.838075637817383,,,,
1556749465832,,,,5.147192750999556,1.3671308755874634,,2.3679378032684326,1013.093994140625,72.48373649117036,44.76136770438166
1556749465852,,,,,-0.004788549616932869,-9.47175121307373,0.8523618578910828,,353.0291943104496,44.884852270882064
1556749465858,,27.042959735200995,,,,,,,,
1556749465859,,,0.0,,,,,,,
1556749465875,,,,,3.251425266265869,-13.338504791259766,1.0989720821380615,,349.27744738521613,44.440884706358986
1556749465894,,,,6.371632004202115,,,,,,
1556749465897,,,,,6.859597206115723,-14.5260648727417,2.8970725536346436,,,
1556749465898,,,,,,,,,48.186277669860885,44.4778495754939
1556749465899,,25.414278195087768,,,,,,,,
1556749465912,,,,,6.363982677459717,-13.010489463806152,1.7669748067855835,,44.796649445174864,44.69504542566851
1556749465922,0.0,,,,,,,,,
1556749465932,,,,,4.764606952667236,-12.689656257629395,1.4485362768173218,,46.51499868185044,44.60276503783581
1556749465933,,,,,,,,1013.093994140625,,
1556749465938,,27.42015785037865,,,,,,,,
1556749465952,,,,7.471631120876172,3.1364998817443848,-14.430294036865234,3.466909885406494,,44.347670375178666,44.29751653749644
1556749465974,,,,,2.269772529602051,-14.006507873535156,4.314483165740967,,9.088572436057234,44.64056375885884
1556749465978,,28.503798144230714,,,,,,,,
1556749465979,,,0.0,,,,,,,
1556749466004,,,,,,-11.449421882629395,,,,
1556749466007,,,,,2.9952378273010254,,-0.2657645046710968,,,
1556749466008,,,,,,,,,66.12624422304668,44.645038271706156
1556749466017,,,,7.325380637007935,5.822876453399658,-13.005701065063477,,,,
1556749466018,,38.614112263174995,,,,,-4.15167236328125,,79.41731423464955,43.78462748694143
1556749466022,0.0,,,,,,,,,
1556749466034,,,,,,-16.35289764404297,,,,
1556749466035,,,,,2.142875909805298,,-1.0965778827667236,1013.08984375,90.81823867647819,43.772949407193124
1556749466055,,,,,,-16.953859329223633,,,,
1556749466056,,,,,-2.5858168601989746,,-1.3216396570205688,,235.6442620835736,43.686057052450366
1556749466059,,44.73687788653302,,,,,,,,
1556749466064,,,53.8525390625,,,,,,,
1556749466078,,,,5.7243894692921256,-3.7566170692443848,-13.654549598693848,,,,
1556749466079,,,,,,,-2.2506182193756104,,246.20204065349913,44.06316719694126
1556749466096,,,,,-2.9952378273010254,-13.106260299682617,4.922628879547119,,330.24722469237173,45.08543801943447
1556749466098,,42.06924451361046,53.8525390625,,,,,,,
1556749466115,,,,,-1.3719195127487183,-12.78542709350586,,,,
1556749466116,,,,,,,-3.2466366291046143,,203.6117130649676,45.402401103287005
1556749466122,0.0,,,,,,,,,
1556749466138,,,,,,-10.429461479187012,,,,
1556749466139,,45.139312539040795,53.8525390625,6.170703322822368,0.3304099142551422,,-4.71193265914917,1013.086181640625,217.54681527378938,46.18012321457389
1556749466159,,,,,-0.3064671754837036,-8.537983894348145,-1.3072741031646729,,188.6618633115354,46.31517896704749
1556749466178,,40.34735652351663,,,,,,,,
1556749466180,,,,,0.7158881425857544,-7.87237548828125,1.5251530408859253,,10.761726310994845,45.8941172834846
1556749466199,,,,,,-6.1197662353515625,,,,
1556749466200,,,,5.78241186065724,0.5746259689331055,,-2.109356164932251,,71.00805363042161,46.10237508234669
1556749466218,,37.509404050995755,,,,,,,,
1556749466219,,,,,,-6.055120944976807,,,,
1556749466220,,,,,0.4908263385295868,,-5.399089813232422,,6.26852521220286,45.6572404557031
1556749466222,0.0,,,,,,,,,
1556749466242,,,,,-0.22745610773563385,-5.624151706695557,-3.5171897411346436,,0.3101827425115289,
1556749466243,,,,,,,,1013.086181640625,,45.875601003259135
1556749466260,,40.81561525395341,,,,,,,,
1556749466265,,,,,-0.8020820617675781,-4.714327335357666,-1.8771114349365234,,,
1556749466266,,,,6.874694540000345,,,,,339.3167152874353,46.74616034877315
1556749466284,,,50.59027390252976,,-1.0486923456192017,-3.347196102142334,-0.45730647444725037,,326.46772585476685,46.97938696993558
1556749466299,,33.67445832354192,50.59027390252976,,,,,,,
1556749466304,,,,,-1.9297854900360107,-2.2242813110351562,,,,
1556749466305,,,,,,,-0.2130904644727707,,348.04883039599326,47.152745406827556
1556749466322,0.0,,,,,,,,,
1556749466326,,,,8.031607653302173,,,,,,
1556749466329,,,,,,-3.1221344470977783,,,,
1556749466330,,,,,-2.138087511062622,,0.14605076611042023,,349.149481229795,46.78418927801668
1556749466340,,24.210561625267673,50.59027390252976,,,,,,,
1556749466351,,,,,-2.3751206398010254,-4.707144260406494,,,,
1556749466352,,,,,,,2.8635525703430176,1013.080322265625,349.587595176369,46.47436756930013
1556749466369,,,,,,-6.481301784515381,,,,
1556749466370,,,,,-2.202732801437378,,7.0511393547058105,,358.40790947817476,46.64914051071235
1556749466380,,25.07158769034913,,,,,,,,
1556749466391,,,,6.025488438731998,,,,,,
1556749466394,,,,,-1.9489396810531616,-12.14136791229248,,,,
1556749466395,,,,,,,18.70646858215332,,3.5818459696293985,
1556749466396,,,,,,,,,5.799860256358215,46.169482312463565
1556749466409,,,,,0.8810931444168091,-17.12864112854004,13.055980682373047,,,
1556749466410,,,,,,,,,9.71518935843983,45.6909334629658
1556749466419,,28.837965820294254,0.0,,,,,,,
1556749466423,0.0,,,,,,,,,
1556749466430,,,,,3.900273561477661,-20.41598129272461,10.467769622802734,,,
1556749466431,,,,,,,,,17.041547375424443,46.119435512780484
1556749466450,,,,14.082813020082094,,,,,,
1556749466452,,,,,-1.192348837852478,-13.12302017211914,3.962524890899658,1013.086669921875,17.678098807954825,45.75400281656347
1556749466458,,34.78373337995358,,,,,,,,
1556749466471,,,,,,-11.411113739013672,,,,
1556749466472,,,,,-6.428627967834473,,3.624932050704956,,3.08648457908356,45.644228989892994
1556749466491,,,,,,,,,346.2080909995803,
1556749466492,,,,,-4.611373424530029,-10.855642318725586,1.302485466003418,,,45.871011099190795
1556749466493,,,,,,,,,337.8908159679994,
1556749466498,,37.59772819684747,,,,,,,,
1556749466512,,,,5.4189696869101756,,,,,,
1556749466513,,,,,-3.1173458099365234,-10.790996551513672,-8.37277889251709,,339.8138096250396,45.565248576833795
1556749466523,0.0,,,,,,,,,
1556749466534,,,,,,-7.099024772644043,,,,
1556749466535,,,,,-1.6975408792495728,,-1.6209239959716797,,334.383269649935,45.15497377611349
1556749466538,,37.01702125490519,,,,,,,,
1556749466542,,,38.18359375,,,,,,,
1556749466553,,,,,,,,,309.8298289989118,45.441036269064405
1556749466554,,,,,-0.3495641350746155,-8.140534400939941,-1.271359920501709,1013.086669921875,255.64113669021413,
1556749466575,,,,3.469176395087095,,,,,,
1556749466576,,,,,4.2019524574279785,-9.395133972167969,-1.733454942703247,,249.11450161748428,46.01076628556163
1556749466579,,30.303190152447932,38.18359375,,,,,,,
1556749466594,,,,,,-8.863605499267578,,,,
1556749466595,,,,,3.8523881435394287,,-6.75185489654541,,2.9783377116430643,45.44456159414004
1556749466615,,,,,,-10.467769622802734,,,,
1556749466616,,,,,3.9242165088653564,,-4.415042877197266,,31.857040477693317,45.07521622558628
1556749466619,,33.57695385167743,38.18359375,,,,,,,
1556749466623,0.0,,,,,,,,,
1556749466637,,,,,,-12.636981964111328,,,,
1556749466638,,,,5.313938080863014,4.939388751983643,,1.412622094154358,,43.791190957835624,45.53841668475071
1556749466657,,,,,,-11.487730979919434,,,,
1556749466658,,,,,3.442967176437378,,4.055901527404785,1013.11083984375,24.954454717573014,45.62265177616056
1556749466659,,36.2188226253857,,,,,,,,
1556749466679,,,,,,-7.357606410980225,,,,
1556749466680,,,,,0.8092648983001709,,-0.3256213665008545,,104.5092982262554,45.62560976591478
1556749466698,,35.54240211667829,,,,,,,,
1556749466699,,,,2.4183016102675565,,,,,,
1556749466702,,,,,,-4.656864643096924,,,,
1556749466703,,,157.9833984375,,-1.6089526414871216,,-5.236279010772705,,102.71915345611922,45.13344069690888
1556749466721,,,,,0.337592750787735,-5.899493217468262,-0.1484450399875641,,334.1381785568529,45.01751513487614
1556749466724,0.0,,,,,,,,,
1556749466738,,30.544925437725425,,,,,,,,
1556749466740,,,157.9833984375,,,,,,,
1556749466741,,,,,2.815667152404785,-8.868393898010254,2.3655436038970947,,109.40618186112852,45.47247802631134
1556749466762,,,,4.670807477259582,,,,,,
1556749466763,,,,,0.6703969240188599,-9.651321411132812,0.9553156495094299,1013.08203125,33.72488889492212,45.21476762696603
1556749466778,,37.73639073796724,,,,,,,,
1556749466779,,,157.9833984375,,,,,,,
1556749466782,,,,,,,,,29.63617031811782,44.45631621538056
1556749466783,,,,,-0.6943396925926208,-8.482915878295898,-0.7733507752418518,,229.10669187798248,
1556749466802,,,,,,,,,226.43458527089012,44.73872126523448
1556749466803,,,,,0.5267404317855835,-8.37038516998291,-1.611346960067749,,151.84237257066036,
1556749466819,,33.41341082405534,157.9833984375,,,,,,,
1556749466824,,,,,1.97048819065094,-10.209187507629395,-0.9768640995025635,,97.35440186310024,
1556749466825,0.0,,,,,,,,,44.946406142382216
1556749466826,,,,2.174431483189445,,,,,,
1556749466844,,,,,1.9561225175857544,-10.28341007232666,1.3072741031646729,,,
1556749466845,,,,,,,,,41.63925789755308,44.43570021748
1556749466859,,24.305551153524917,,,,,,,,
1556749466865,,,,,,-8.775016784667969,,,,
1556749466866,,,,,-0.43336373567581177,,2.171607255935669,,346.95027045385126,44.31908828546426
1556749466867,,,,,,,,1013.092041015625,,
1556749466887,,,,,,-11.638569831848145,,,,
1556749466888,,,,3.9533109960412802,1.2067145109176636,,,,,
1556749466889,,,,,,,0.241821750998497,,67.31141181763815,
1556749466890,,,,,,,,,,44.38527933211387
1556749466899,,28.228864295987485,0.0,,,,,,,
1556749466908,,,,,5.8420305252075195,-13.412727355957031,,,,
1556749466910,,,,,,,2.9832663536071777,,39.84988835388771,44.86704260953625
1556749466925,0.0,,,,,-13.063163757324219,,,,
1556749466926,,,,,6.969734191894531,,1.6472610235214233,,47.488416751793125,44.8820835734502
1556749466939,,27.640019362551964,,,,,,,,
1556749466946,,,,,,-12.680079460144043,,,,
1556749466947,,,,8.383924597131742,6.045543670654297,,1.3599480390548706,,49.14321790843093,44.180618649576886
1556749466964,,,,,,-13.266676902770996,,,,
1556749466965,,,,,4.300117492675781,,2.456526041030884,1013.087646484375,37.540618470979325,44.07848426071716
1556749466979,,29.69431761765577,0.0,,,,,,,
1556749466985,,,,,1.0271438360214233,-13.707222938537598,2.8635525703430176,,4.528829926823732,44.688682349313
1556749467007,,,,7.102392905588339,1.381496548652649,-11.796591758728027,3.471698522567749,,5.122418615701065,44.55322121289607
1556749467021,,39.20464319605137,,,,,,,,
1556749467026,0.0,,,,4.204346656799316,-11.995316505432129,-0.6871568560600281,,67.31639102554306,44.244212738837575
1556749467046,,,,,4.525179386138916,-14.463813781738281,-1.8938714265823364,,80.07992454641084,44.50341976768732
1556749467058,,41.38484131076066,,,,,,,,
1556749467068,,,,,-0.04549122229218483,-17.248355865478516,,,,
1556749467069,,,,7.666717971408953,,,-2.664827823638916,1013.086181640625,164.10730228211722,44.73010971032858
1556749467090,,,,,-4.867560863494873,-16.03206443786621,-3.4501500129699707,,244.57760310281668,45.133479854635205
1556749467098,,35.7866369922604,,,,,,,,
1556749467102,,,55.947265625,,,,,,,
1556749467103,,,55.947265625,,,,,,,
1556749467111,,,,,-3.4309957027435303,-13.836514472961426,-0.5435003638267517,,268.1273098892661,44.80798917015441
1556749467127,0.0,,,,,,,,,
1556749467129,,,,,-3.627326250076294,-12.407132148742676,6.347222328186035,,336.54774122998646,44.63826358407205
1556749467130,,,,7.545737107700954,,,,,,
1556749467139,,41.57377110328903,55.947265625,,,,,,,
1556749467146,,,,,,-12.201224327087402,,,,
1556749467147,,,,,-1.7262721061706543,,-4.594613552093506,,222.3683550919281,45.223920725304104
1556749467168,,,,,0.4142095446586609,-10.170879364013672,-6.052726745605469,1013.08056640625,48.53779677059015,45.286048187168056
1556749467178,,44.17526926696208,55.947265625,,,,,,,
1556749467191,,,,7.879416544270584,0.5865973234176636,-8.358413696289062,0.7565908432006836,,27.75733383406174,45.541146678592206
1556749467210,,,,,0.9696813225746155,-7.115784645080566,1.2761484384536743,,26.175865003447825,46.03673763652546
1556749467218,,43.10099778798828,,,,,,,,
1556749467227,0.0,,,,,,,,,
1556749467233,,,,,0.7158881425857544,-6.047938346862793,-3.9744961261749268,,14.981383029282881,45.72995863889785
1556749467253,,,,8.900921857431925,0.6033572554588318,-6.098217964172363,-5.506832122802734,,3.1098916373691736,45.79882997125241
1556749467259,,40.413250871675544,,,,,,,,
1556749467269,,,51.6162109375,,,,,,,
1556749467276,,,,,,,,,357.0788106945858,
1556749467277,,,,,-0.3591412305831909,-5.5044379234313965,-2.6504621505737305,1013.052001953125,345.30421962331394,46.07488043066568
1556749467296,,,,,-0.991229772567749,-4.357580184936523,-1.0415095090866089,,341.88465297194847,45.89631383570244
1556749467299,,33.892459659789395,51.6162109375,,,,,,,
1556749467316,,,,6.586585034522229,,,,,,
1556749467317,,,,,,,,,327.99935479500715,46.082070829580175
1556749467318,,,,,-1.8555629253387451,-2.3320236206054688,0.12210801243782043,,349.012420677494,
1556749467326,0.0,,,,,,,,,
1556749467337,,,,,-2.454131603240967,-2.7773587703704834,0.011971374042332172,,348.9287978177119,46.05690743367521
1556749467338,,25.775002669052604,,,,,,,,
1556749467339,,,51.6162109375,,,,,,,
1556749467349,,,55.244140625,,,,,,,
1556749467358,,,,,-2.566662549972534,-4.27138614654541,1.6041641235351562,,356.7374568363322,
1556749467359,,,,,,,,,,46.11393333409162
1556749467379,,24.14649381203821,55.244140625,,,,,,,
1556749467380,,,,5.005296953139876,-2.444554567337036,-5.913858890533447,5.317684173583984,,,
1556749467381,,,,,,,,1013.06884765625,356.988805876798,46.30464722635221
1556749467400,,,,,-2.5307483673095703,-9.277814865112305,15.443072319030762,,7.011518739645567,45.922776946610064
1556749467419,,26.087097341336776,55.244140625,,,,,,,
1556749467421,,,,,0.5770202279090881,-14.667327880859375,,,10.971192844913503,
1556749467422,,,,,,,16.431907653808594,,11.659586267017914,45.25583294161044
1556749467427,0.0,,,,,,,,,
1556749467441,,,,,,-21.194120407104492,,,,
1556749467442,,,,14.841644587528029,4.357580184936523,,10.59227180480957,,22.299409923027326,45.207522223349585
1556749467459,,32.516660806943705,55.244140625,,,,,,,
1556749467464,,,,,-1.6496553421020508,-13.817359924316406,3.4190244674682617,,5.528247111842063,45.714094059627215
1556749467483,,,,,-5.181210517883301,-8.169265747070312,2.6456737518310547,1013.0859375,349.73461158315894,45.6656748553329
1556749467498,,38.952260751473695,,,,,,,,
1556749467504,,,,6.313297938912634,-4.9753031730651855,-11.07352066040039,-0.4142095446586609,,333.4699008956278,45.44784945374981
1556749467523,,,,,,-14.19565486907959,,,,
1556749467524,,,,,-5.324867248535156,,-6.208354473114014,,322.32472776462845,45.168722386865994
1556749467527,0.0,,,,,,,,,
1556749467539,,36.33917049747373,,,,,,,,
1556749467544,,,,,,-10.75268840789795,,,,
1556749467545,,,,,-1.6951465606689453,,0.7853221297264099,,338.8064591753003,45.702083670253224
1556749467546,,,44.12109375,,,,,,,
1556749467566,,,,,,-9.057541847229004,,,,
1556749467567,,,,5.697507668088713,1.6568381786346436,,-3.996044635772705,,334.58378009830454,46.089217303370084
1556749467578,,36.781306882837136,44.12109375,,,,,,,
1556749467588,,,,,2.2410411834716797,-7.221132755279541,-2.075836181640625,,57.862541780220795,45.409693397439554
1556749467590,,,,,,,,1013.092529296875,,
1556749467608,,,,,3.7087316513061523,-6.210748672485352,,,,
1556749467609,,,,,,,-5.514014720916748,,5.105816560262895,44.98019564233673
1556749467619,,30.73437988117606,44.12109375,,,,,,,
1556749467628,0.0,,,,,,,,,
1556749467630,,,,,,-9.59385871887207,,,,
1556749467631,,,,,3.747040033340454,,-5.722316741943359,,9.964852409397679,
1556749467632,,,,,,,,,,44.867242253171625
1556749467633,,,,6.947405367848837,,,,,,
1556749467653,,,,,5.9354071617126465,-14.696059226989746,0.15562786161899567,,57.25476764221099,
1556749467654,,,,,,,,,,45.31342879995018
1556749467659,,35.47253888750679,,,,,,,,
1556749467674,,,,,5.004034519195557,-11.739129066467285,2.794118642807007,,38.898289323248605,45.58941830661637
1556749467695,,,,,,-7.0511393547058105,,,,
1556749467696,,,,3.233038732209951,-0.8786988258361816,,-0.25618740916252136,1013.096923828125,40.07803033254447,44.98659641258313
1556749467700,,38.21016055930015,,,,,,,,
1556749467714,,,,,,-3.931399345397949,,,,
1556749467715,,,,,-4.223500728607178,,-3.3711390495300293,,324.26468931911427,44.734455885455546
1556749467728,0.0,,,,,,,,,
1556749467736,,,,,-1.228263020515442,-5.39190673828125,,,,
1556749467737,,,,,,,0.07182824611663818,,318.80123807749396,44.79433034425898
1556749467739,,34.15234240199718,,,,,,,,
1556749467753,,,133.57421875,,,,,,,
1556749467757,,,,5.107538949124254,,,,,,
1556749467761,,,,,2.3416006565093994,-9.95300006866455,1.4940274953842163,,295.38152003623367,44.68066539425183
1556749467776,,,,,2.3751206398010254,-10.451009750366211,0.6416656374931335,,62.387890445001915,
1556749467777,,,,,,,,,,44.955417525013914
1556749467779,,34.28162995723764,133.57421875,,,,,,,
1556749467796,,,,,,-8.722343444824219,,,,
1556749467797,,,,,0.35195839405059814,,-1.5658557415008545,1013.061279296875,167.00872566040363,45.00255992707193
1556749467819,,30.6053103547534,133.57421875,1.2816264832195159,0.7254652380943298,-8.356019020080566,,,,
1556749467820,,,,,,,-1.781340479850769,,,
1556749467822,,,,,,,,,149.40217820664657,45.140657848785175
1556749467828,0.0,,,,,,,,,
1556749467842,,,,,2.4684972763061523,-10.565935134887695,0.08619388937950134,,72.17889831832349,
1556749467843,,,,,,,,,71.63907431727154,44.99271901541094
1556749467859,,21.93983864953179,,,,,,,,
1556749467860,,,,,2.8084843158721924,-9.78061294555664,,,,
1556749467861,,,,,,,0.8619389533996582,,55.59081061699084,44.52978164670293
1556749467887,,,,4.242832647622626,,-8.32249927520752,,,,
1556749467888,,,,,0.4549122154712677,,1.2210801839828491,,14.708686019122808,44.65814050772163
1556749467899,,24.44609445820943,0.0,,,,,,,
1556749467902,,,,,1.4940274953842163,-11.4039306640625,1.8172545433044434,,27.868753002444862,44.74129435040115
1556749467903,,,,,,,,1013.064453125,,
1556749467920,,,,,,-15.062382698059082,,,,
1556749467921,,,,,5.396695613861084,,2.135693073272705,,45.42244845240435,44.48448690183049
1556749467931,0.0,,,,,,,,,
1556749467938,,25.071756167581036,,,,,,,,
1556749467940,,,,9.151144954566734,6.0934295654296875,-14.669721603393555,,,,
1556749467941,,,,,,,1.113337755203247,,52.5804901176723,44.48865290608123
1556749467959,,,,,,-12.835707664489746,,,,
1556749467960,,,,,4.168432235717773,,2.0542876720428467,,40.748662701485955,45.06051718477278
1556749467979,,29.164927417617207,,,,,,,,
1556749467983,,,,,2.877918243408203,-13.872427940368652,1.4389591217041016,,42.07379111745473,44.65749515244914
1556749468009,,,,8.101427833077963,3.44057297706604,-14.205232620239258,2.171607255935669,1013.06787109375,40.86558529479282,44.14801288263832
1556749468019,,30.780194822310627,0.0,,,,,,,
1556749468025,,,,,4.312088966369629,-11.66490650177002,1.8292258977890015,,40.55243478172605,44.178989942168
1556749468031,0.0,,,,,,,,,
1556749468042,,,,,5.121353626251221,-13.235550880432129,-1.3838908672332764,,70.09709764043862,44.93887755113981
1556749468058,,38.71630675888391,,,,,,,,
1556749468066,,,,5.0668975191896966,0.22506183385849,-14.289031982421875,-0.03830839693546295,,82.93044252481315,45.268835970990665
1556749468091,,,,,-2.1476645469665527,-16.278675079345703,-0.8643332123756409,,84.82237760415,45.22778295868629
1556749468098,,33.281273210070324,,,,,,,,
1556749468104,,,69.599609375,,,,,,,
1556749468107,,,69.599609375,,,,,,,
1556749468109,,,,,-3.8236567974090576,-14.02326774597168,-2.7031362056732178,1013.07275390625,242.76761663314164,45.93606321169653
1556749468123,,,,6.35377889815353,,,,,,
1556749468126,,,,,-2.1787900924682617,-12.529239654541016,2.7989072799682617,,255.5836538181593,45.78019526809957
1556749468130,0.0,,,,,,,,,
1556749468138,,45.240314698793675,69.599609375,,,,,,,
1556749468143,,,,,-1.8052831888198853,-12.031230926513672,-1.7406377792358398,,231.9420673269949,
1556749468144,,,,,,,,,235.9999646751695,45.79021913842154
1556749468162,,,,,-0.3304099142551422,-11.315342903137207,-4.867560863494873,,162.25591120569356,
1556749468163,,,,,,,,,,45.787899906495994
1556749468178,,45.645028581992406,69.599609375,,,,,,,
1556749468183,,,70.23770771329366,,,,,,,
1556749468184,,,,3.724816639118784,-0.9864411950111389,-9.342460632324219,-1.951333999633789,,214.17542023909277,
1556749468185,,,,,,,,,,46.33192858353965
1556749468206,,,,,0.5027977228164673,-8.212362289428711,,,,
1556749468207,,,,,,,2.571451187133789,1013.063232421875,2.4007434048111804,46.73364327362144
1556749468218,,40.266272174896145,70.23770771329366,,,,,,,
1556749468225,,,,,0.8547561168670654,-6.747066497802734,,,,
1556749468226,,,,,,,-1.242628574371338,,100.76693512716781,46.69680973596001
1556749468231,0.0,,,,,,,,,
1556749468246,,,,8.602234359404601,,-6.265817165374756,,,,
1556749468247,,,,,0.9984126091003418,,-5.365570068359375,,11.160711811361125,46.76745037576437
1556749468258,,39.84212039104728,70.23770771329366,,,,,,,
1556749468265,,,,,0.3232271075248718,-6.055120944976807,,,,
1556749468266,,,,,,,-3.9170336723327637,,6.692947190811935,47.032765117341064
1556749468287,,,,,,-5.293741703033447,,,,
1556749468288,,,,,-0.6775797605514526,,-2.4900457859039307,,346.75543589268204,
1556749468289,,,,,,,,,,47.09071085336628
1556749468299,,41.574329871229445,70.23770771329366,,,,,,,
1556749468309,,,,7.069755405797483,-1.3599480390548706,-3.7614057064056396,-1.0439038276672363,,,
1556749468310,,,,,,,,1013.03564453125,344.4679619971888,46.73090858341901
1556749468313,,,40.9130859375,,,,,,,
1556749468314,,,40.9130859375,,,,,,,
1556749468330,,,,,-1.7550034523010254,-2.636096477508545,-0.11971373856067657,,344.1509780404504,47.13930734327826
1556749468332,0.0,,,,,,,,,
1556749468339,,31.188997280024285,40.9130859375,,,,,,,
1556749468351,,,,,-2.6217308044433594,-2.731867551803589,0.3232271075248718,,350.4815764387172,46.84032601996384
1556749468371,,,,,,-4.388705730438232,,,,
1556749468372,,,,5.677336278290804,-2.7677817344665527,,2.7342617511749268,,356.9246505502543,46.818226876999404
1556749468379,,26.701316818399743,40.9130859375,,,,,,,
1556749468388,,,38.994140625,,,,,,,
1556749468393,,,,,-2.6169424057006836,-6.4310221672058105,6.814105987548828,,,
1556749468394,,,,,,,,,1.7804819734512876,47.18956981130614
1556749468412,,,,,,-10.474952697753906,,,,
1556749468413,,,,,-2.049499273300171,,16.02727508544922,,4.657693398347021,46.64995189014174
1556749468414,,,,,,,,1013.061279296875,,
1556749468419,,25.736752827023025,38.994140625,,,,,,,
1556749468433,0.0,,,,,,,,,
1556749468434,,,,13.989139158800905,,,,,,
1556749468436,,,,,1.9154198169708252,-15.378427505493164,,,,
1556749468437,,,,,,,13.625818252563477,,4.789666740376845,46.434146144094264
1556749468456,,,,,3.689577579498291,-20.41837501525879,10.941835403442383,,10.52893041219238,46.049442324215796
1556749468459,,29.240221668127827,38.994140625,,,,,,,
1556749468475,,,,,,,,,15.383904860091945,45.97480089039339
1556749468476,,,,,,-13.893977165222168,,,,
1556749468477,,,,,-1.0415095090866089,,3.6823947429656982,,4.593808077718961,
1556749468496,,,,4.896876425581617,,,,,,
1556749468498,,,,,,-9.459779739379883,,,,
1556749468499,,35.04689804688474,,,-7.470137596130371,,1.2785427570343018,,3.0696579811764195,46.262489551294614
1556749468519,,,,,-5.344021320343018,-8.705583572387695,-0.1484450399875641,,,
1556749468520,,,,,,,,1013.073974609375,341.4524300635336,46.43123862728156
1556749468533,0.0,,,,,,,,,
1556749468541,,36.52348975632039,,,,,,,,
1556749468544,,,,,-4.874743461608887,-15.541237831115723,-5.439792156219482,,336.79962665374546,46.76194567491151
1556749468561,,,,10.862277602189664,,,,,317.3449461237989,46.27478330505184
1556749468564,,,,,1.8986599445343018,-11.253091812133789,0.1005595400929451,,79.44096034955618,
1556749468579,,37.73310241319608,,,,,,,,
1556749468581,,,,,3.0503060817718506,-8.073494911193848,-3.0455174446105957,,,
1556749468582,,,,,,,,,27.513741967502426,45.962073532271475
1556749468593,,,94.52380952380952,,,,,,,
1556749468600,,,,,2.7390503883361816,-6.759037971496582,-2.664827823638916,,,
1556749468601,,,,,,,,,30.845332367263495,46.153923914157886
1556749468619,,31.03259028411554,,,,,,,,
1556749468620,,,94.52380952380952,,,,,,,
1556749468622,,,,,,-6.383136749267578,,,,
1556749468626,,,,8.940127113343209,2.9928436279296875,,-6.6824212074279785,,31.047936268613626,
1556749468627,,,,,,,,1013.0771484375,,46.314946558811464
1556749468633,0.0,,,,,,,,,
1556749468642,,,,,1.8771114349365234,-9.890748977661133,-4.764606952667236,,11.024511009121909,46.423250823807834
1556749468658,,34.85029749599658,94.52380952380952,,,,,,,
1556749468662,,,,,5.209941864013672,-15.890801429748535,2.0902018547058105,,40.50605779726169,
1556749468663,,,,,,,,,,46.45724357707882
1556749468684,,,,,4.132518291473389,-11.715187072753906,3.7135202884674072,,26.261254320904015,46.34498048001837
1556749468686,,,,5.567329624619861,,,,,,
1556749468698,,36.68374029251705,,,,,,,,
1556749468704,,,,,1.3479766845703125,-7.374366283416748,-1.1037607192993164,,95.84459537725809,46.17618729405575
1556749468724,,,,,,-4.65207576751709,,,,
1556749468725,,,,,-2.229069948196411,,-4.28096342086792,1013.1005859375,333.7920313999058,46.05452293016691
1556749468733,0.0,,,,,,,,,
1556749468738,,32.89405655091534,,,,,,,,
1556749468741,,,0.0,,,,,,,
1556749468746,,,,,,-5.355992794036865,,,,
1556749468747,,,,4.563630473510633,-0.44054657220840454,,-0.9457385540008545,,217.44067413408737,46.359230405613275
1556749468769,,,,,2.5259599685668945,-9.215563774108887,2.298503875732422,,215.06748392583143,46.2350899009072
1556749468778,,35.266830134761946,,,,,,,,
1556749468788,,,,,1.2976969480514526,-9.347249031066895,1.1708003282546997,,37.02896217006452,45.43208496564558
1556749468811,,,,2.4613265441492302,-1.2474172115325928,-8.415876388549805,-1.3431881666183472,,239.60410523602349,45.449117532327485
1556749468819,,34.12913659425915,,,,,,,,
1556749468829,,,,,,-8.535589218139648,,,,
1556749468830,,,,,0.20351335406303406,,-0.8715160489082336,1013.054443359375,160.8166947249235,45.33928081284491
1556749468834,0.0,,,,,,,,,
1556749468851,,,,,,-10.015251159667969,,,,
1556749468852,,,,,2.7414445877075195,,0.8547561168670654,,51.27720806176387,45.322443407065386
1556749468859,,30.899391375670735,,,,,,,,
1556749468868,,,52.412109375,,,,,,,
1556749468872,,,,4.786344319986068,,-9.703995704650879,,,,
1556749468873,,,,,2.76059889793396,,1.4389591217041016,,42.36237685517153,45.29542753523785
