timestamp,AmbientLightSensor,DecibelSource,PitchSensor,LinearAccelerometerSensor,AccX,AccY,AccZ,BarometerSensor,CompassSensor,MagneticRotationSensor
1556367312135,4669.0,,,,,,,,,
1556367312139,,,,,-1.082212209701538,-9.483722686767578,-4.53236198425293,,260.01807217452006,45.56828968306685
1556367312145,,33.886564053504884,38.203125,,,,,,,
1556367312148,,,,,,,,1012.691650390625,,
1556367312158,,,,,-0.84517902135849,-8.861210823059082,-4.783761024475098,,273.1131635682678,45.71043041413002
1556367312185,,34.05076551829708,38.203125,,,,,,,
1556367312186,,,,7.781829444728015,-0.931372880935669,-8.193208694458008,-4.936994552612305,,280.02390798935164,46.18527004924942
1556367312191,,,43.06640625,,,,,,,
1556367312211,8318.0,,,,-1.1995316743850708,,-4.90108060836792,,295.0658560135523,
1556367312212,,,,,,-7.5180230140686035,,,,46.45046335379736
1556367312225,,43.277876761053435,43.06640625,,,,,,,
1556367312230,,,,,-1.30009126663208,-6.974522590637207,-4.824463844299316,,301.7681703819241,46.62934207747441
1556367312243,,,,8.278881958006732,-1.1037607192993164,,,,,
1556367312244,,,,,,-6.6465067863464355,-5.20036506652832,,310.3816263215788,47.08375471312524
1556367312250,8318.0,,,,,,,,,
1556367312254,,,,,,,,1012.685302734375,,
1556367312261,,,,,-1.144463300704956,,,,,
1556367312262,,,,,,-6.567495822906494,-5.183605194091797,,314.4299204237804,47.40538994437129
1556367312265,,44.52217869220953,43.06640625,,,,,,,
1556367312268,,,50.0830078125,,,,,,,
1556367312292,,,,,-1.211503028869629,-6.794951915740967,-5.274587631225586,,313.3798676313501,46.925061912662464
1556367312305,,47.032234756007455,50.0830078125,,,,,,,
1556367312313,,,,7.4034882236968516,-1.2043201923370361,-8.056735038757324,-5.231490612030029,,305.1746111172521,46.38504499259923
1556367312323,,,,,-0.9888355135917664,-9.811738014221191,-5.554717540740967,,297.7604134524465,46.51768554803027
1556367312343,,,,,-0.8332076072692871,-12.371217727661133,-6.103006362915039,,287.3126965508066,46.8852666462959
1556367312345,,31.937543155399464,50.0830078125,,,,,,,
1556367312346,,,0.0,,,,,,,
1556367312356,,,,,,,,1012.69677734375,,
1556367312357,8318.0,,,,,,,,,
1556367312377,,,,8.391406940985448,-1.2737542390823364,-13.74313735961914,-6.1508917808532715,,283.942066497297,46.8210319648439
1556367312385,,40.20736409141585,,,,,,,,
1556367312396,8618.0,,,,-2.0327394008636475,-13.158934593200684,-5.219519138336182,,286.62243080309594,46.36684152219608
1556367312404,,,,,-2.597788095474243,-12.222772598266602,-4.185192584991455,,279.72679476045613,46.30087690685515
1556367312425,,33.39606569474219,,,,,,,,
1556367312427,,,,6.352843433450993,-2.4661030769348145,-12.88359260559082,-4.1971635818481445,,285.15850952809797,46.7933053751412
1556367312445,,,,,-1.9776710271835327,-13.740742683410645,-4.412648677825928,,278.8136326193713,46.265290708487086
1556367312454,,,,,,,,1012.70849609375,,
1556367312465,8618.0,45.04012382787957,,,,,,,,
1556367312467,,,,,-1.5083931684494019,-14.444660186767578,-4.537150859832764,,262.2281438050178,46.184373972838486
1556367312468,,,38.9697265625,,,,,,,
1556367312488,,,,6.058446099002738,-1.1540404558181763,-15.021679878234863,-4.515602111816406,,247.5450265990529,46.68979057528135
1556367312505,,38.5745540740856,38.9697265625,,,,,,,
1556367312507,,,,,,,,,231.24010146523597,
1556367312508,,,,,-1.13009774684906,-14.923515319824219,-4.39109992980957,,230.70637682311286,46.85004793094237
1556367312527,,,,,-1.0630580186843872,-14.7247896194458,-3.4645156860351562,,228.70481720759733,46.54395286697594
1556367312545,,47.348845898369916,38.9697265625,,,,,,,
1556367312550,,,,,-0.7733507752418518,,,,,
1556367312551,,,,4.851063185104778,,-13.891582489013672,-2.638490915298462,,215.45415459512418,46.29842815393901
1556367312558,,,,,,,,1012.70849609375,,
1556367312570,7307.0,,,,-0.7853221297264099,-13.328927993774414,-1.7047237157821655,,216.18028566616658,46.61895721766721
1556367312585,,44.29900001545086,,,,,,,,
1556367312588,,,,,-0.8810931444168091,,-1.4006507396697998,,221.04094880787113,
1556367312589,,,,,,-13.058374404907227,,,215.44716048141413,46.61304905971457
1556367312612,,,,5.932848905582765,-0.572231650352478,,,,,
1556367312613,,,,,,-12.993729591369629,-1.053480863571167,,210.02047956319058,46.2420958652832
1556367312626,,50.94653224010078,,,,,,,,
1556367312629,,,38.4716796875,,,,,,,
1556367312632,,,,,-0.3782954216003418,-12.639376640319824,-0.596174418926239,,208.0764847819999,45.82857126358272
1556367312651,,,,,-0.22745610773563385,,,,,
1556367312652,,,,,,-12.134184837341309,-0.4189980924129486,,200.63538983224294,46.10956160833952
1556367312661,,,,,,,,1012.682861328125,,
1556367312666,,46.760379621193955,38.4716796875,,,,,,,
1556367312677,7307.0,,,7.175900329033742,-0.09098244458436966,-11.250697135925293,-0.241821750998497,,197.13036897662414,45.95032344344813
1556367312700,,,,,0.05267404764890671,-10.343267440795898,-0.15802213549613953,,149.37545850661348,45.25805765824621
1556367312706,,47.50041722329037,38.4716796875,,,,,,,
1556367312712,,,,,0.09577099233865738,-9.735121726989746,0.014365648850798607,,67.44020186462785,45.55877001444269
1556367312746,,50.13376786380407,38.4716796875,,,,,,,
1556367312750,,,42.060546875,,,,,,,
1556367312751,,,,7.0567333343100405,0.16281068325042725,-9.191620826721191,-0.07422251999378204,,99.0849327421605,45.746016003851196
1556367312754,5404.0,,,,0.04788549616932869,-8.557138442993164,-0.03591412305831909,,110.94926502860699,45.60915681484057
1556367312763,,,,,,,,1012.677978515625,,
1556367312776,,,,,0.2705530524253845,-8.279402732849121,0.25858166813850403,,28.13443711587462,45.052849397938104
1556367312785,,44.40225047933717,42.060546875,,,,,,,
1556367312799,5404.0,,,7.522948695829191,0.028731297701597214,-7.9489922523498535,0.6608198285102844,,343.7324547839633,44.878113243099925
1556367312822,,,,,0.1604164093732834,,0.8044763207435608,,351.31639204115373,45.037941890686405
1556367312823,,,,,,-7.546754360198975,,,,
1556367312826,,43.21271874329995,42.060546875,,,,,,,
1556367312827,,,0.0,,,,,,,
1556367312847,,,,,0.2944957911968231,-7.470137596130371,0.7134938836097717,,349.3580897211992,44.915319432330136
1556367312857,,,,,0.9960182905197144,-8.638543128967285,0.9337671995162964,,23.615640310054857,45.06275458072704
1556367312859,,,,8.290048208062013,,,,,,
1556367312866,,38.56244989430317,,,,,,,,
1556367312873,,,,,,,,1012.6708984375,,
1556367312875,,,,,1.2665714025497437,-9.469356536865234,0.742225170135498,,34.842550314851735,45.58823512852286
1556367312896,,,,,1.6305011510849,-10.027222633361816,0.6057515144348145,,43.791187542741056,45.45790882394392
1556367312905,,43.50477504993216,,,,,,,,
1556367312908,,,41.455078125,,,,,,,
1556367312920,5404.0,,,8.054976390612223,1.6688095331192017,,0.3663240373134613,,51.32015970635945,44.86435472050507
1556367312921,,,,,,-11.188446044921875,,,,
1556367312942,6957.0,,,,1.1899546384811401,-11.427873611450195,-0.09577099233865738,,65.99554172308933,44.677846208876446
1556367312946,,36.75442363498587,41.455078125,,,,,,,
1556367312964,,,,,0.5387118458747864,,,,,
1556367312965,,,,,,-11.564347267150879,-0.26337021589279175,,85.41820915639607,44.95473689707766
1556367312967,,,,,,,,1012.69091796875,,
1556367312979,,,,5.176271903335522,0.031125571578741074,-12.373612403869629,-1.2210801839828491,,146.31383987153362,45.12977078136796
1556367312986,,37.349662425223315,41.455078125,,,,,,,
1556367312996,,,,,-0.1412622183561325,,-2.257801055908203,,,
1556367312997,,,,,,-13.266676902770996,,,149.6042971645656,44.75694284568425
1556367313025,,34.22828157306207,41.455078125,,,,,,,
1556367313027,6957.0,,,,-0.38547825813293457,-14.521276473999023,-3.50042986869812,,150.073954632274,45.15353815960937
1556367313035,,,53.4765625,,,,,,,
1556367313047,,,,7.0153049999229085,-0.32801565527915955,-16.151777267456055,-4.316877365112305,,147.22363472935766,45.93633808200517
1556367313058,,,,,-0.9864411950111389,,-4.920234680175781,,,
1556367313059,,,,,,-16.8054141998291,,,155.4528788678208,46.297530883699736
1556367313065,,35.77306525120986,53.4765625,,,,,,,
1556367313070,,,,,,,,1012.701171875,,
1556367313078,,,,,-1.6185297966003418,,,,,
1556367313079,,,,,,-16.391204833984375,-5.178816318511963,,157.60369177707946,46.66214277103025
1556367313105,,34.87396206085591,53.4765625,,,,,,,
1556367313117,,,,7.594112434686116,-1.9585168361663818,,-5.561900615692139,,166.4795499242677,
1556367313118,,,,,,-14.559585571289062,,,172.27236996313894,46.5333939865577
1556367313120,5001.0,,,,-2.415823221206665,,-5.322473049163818,,178.70456401021502,46.536410927176505
1556367313121,,,,,,-13.429487228393555,,,,
1556367313140,5001.0,,,,-2.8084843158721924,-12.447834968566895,-5.025582790374756,,197.50436281481734,46.488229993512206
1556367313145,,37.63891957511539,,,,,,,,
1556367313161,,,,8.723679984287692,-3.0814316272735596,-11.717580795288086,-4.3551859855651855,,227.18531868332292,46.91930887566955
1556367313182,,,,,,,,1012.71630859375,,
1556367313183,,,,,-3.316070556640625,-11.346467971801758,-3.912245035171509,,243.01704148125214,46.8683733526744
1556367313185,,35.69929657650128,,,,,,,,
1556367313187,,,38.9990234375,,,,,,,
1556367313204,,,,,-3.162837028503418,-10.721562385559082,-3.383110284805298,,255.8911694251608,46.51025694786179
1556367313225,,37.55443232052862,38.9990234375,8.046775446896318,-2.418217658996582,-10.209187507629395,-3.9529476165771484,,256.40805082079066,47.199906013977106
1556367313247,,,,,-1.8244373798370361,,-4.58024787902832,,269.6407022244225,46.85765659011608
1556367313248,5001.0,,,,,-9.92426872253418,,,,
1556367313259,,,,,-1.5275473594665527,-9.47175121307373,-4.85080099105835,,267.73917755949094,46.827876441456304
1556367313265,,36.13799888201999,38.9990234375,,,,,,,
1556367313272,,,,,,,,1012.735107421875,,
1556367313294,,,,8.131671689920607,-1.4341706037521362,,-4.893897533416748,,282.78266237625485,
1556367313295,,,,,,-8.679245948791504,,,288.5398219974694,47.686752092224594
1556367313306,,29.836395811387852,38.9990234375,,,,,,,
1556367313313,9131.0,,,,-1.4461419582366943,,-5.008822917938232,,,
1556367313314,,,,,,-8.080677032470703,,,295.0957039402253,47.43374577931432
1556367313320,,,,,-1.4676904678344727,-7.867587089538574,-5.097411155700684,,301.9854865107464,47.46159279249587
1556367313343,,,,,-1.2569942474365234,,,,,
1556367313344,,,,8.604468635143258,,-7.532388687133789,-5.612180233001709,,316.03413719942506,48.187583476357204
1556367313345,,33.350998837554805,,,,,,,,
1556367313359,9131.0,,,,,,,,,
1556367313362,,,,,-1.3647366762161255,-7.118178844451904,-5.887521743774414,,322.0855755210296,47.92847066103191
1556367313380,,,,,,,,1012.7451171875,,
1556367313381,,,,,-1.4581133127212524,,,,,
1556367313382,,,,,,-6.672843933105469,-5.897099018096924,,322.4414454522602,47.41461840023773
1556367313385,,31.179000564673256,0.0,,,,,,,
1556367313406,,,,8.44857761668301,-1.6305011510849,-7.247469902038574,-5.638517379760742,,320.08431301874293,47.50700430228586
1556367313425,,28.680863850152377,,,,,,,,
1556367313429,,,,,-1.6640210151672363,-8.834874153137207,-5.612180233001709,,320.2468134643813,47.763090399145334
1556367313448,,,,,-1.3886793851852417,,-6.129343509674072,,304.7050117061516,48.233506345338874
1556367313449,,,,,,-11.269851684570312,,,,
1556367313465,,24.65844649948322,0.0,,,,,,,
1556367313468,9131.0,,,9.485779408479207,-1.5107873678207397,-13.810176849365234,-6.948185443878174,,299.22458744444384,47.984772638734476
1556367313474,,,,,,,,1012.75390625,,
1556367313488,9572.0,,,,-2.174001455307007,-13.757503509521484,-6.316096782684326,,298.2962691135907,48.148308395570666
1556367313504,,,,,-3.0215747356414795,-12.33290958404541,-4.872349262237549,,302.0204297585402,47.84201519833069
1556367313505,,27.228968279012197,,,,,,,,
1556367313527,,,,7.011452162411239,-3.562680959701538,,-3.842811107635498,,304.71337185769573,
1556367313528,,,,,,-11.399142265319824,,,,47.2838812912843
1556367313545,,30.625920025872734,,,-3.134105682373047,-12.052779197692871,-3.747040033340454,,295.0206333310577,47.79940355715674
1556367313573,,,,,-2.5331428050994873,-12.991334915161133,-4.22110652923584,,283.67379032707726,47.65216473639937
1556367313574,9572.0,,,,,,,,,
1556367313577,,,,,,,,1012.74853515625,,
1556367313585,,30.114850927258466,0.0,,,,,,,
1556367313587,,,,,-1.9369683265686035,,,,,
1556367313588,,,,6.139558267515249,,-14.078335762023926,-4.419831275939941,,270.3759242772502,47.23246110359995
1556367313605,,,,,-1.8100717067718506,-14.818166732788086,-4.453351020812988,,252.38384679579173,47.25490409493414
1556367313625,,30.395874354439442,,,,,,,,
1556367313626,,,,,-1.5419130325317383,-15.584334373474121,-4.115758419036865,,241.40034936508846,47.84698118919863
1556367313655,,,,6.275894842897032,-1.4269877672195435,,,,,
1556367313656,,,,,,-15.388004302978516,-3.217905282974243,,232.69562843774406,47.67059276059832
1556367313665,,33.74520578479614,0.0,,,,,,,
1556367313670,8080.0,,,,-1.3168511390686035,-15.701654434204102,-2.4325830936431885,,216.57281663776723,46.69873527021185
1556367313677,,,,,,,,1012.767333984375,,
1556367313683,8080.0,,,,,,,,,
1556367313687,,,,,-1.3551595211029053,,,,213.26705972099444,46.812190616016196
1556367313688,,,,,,-15.510111808776855,-1.7717633247375488,,,
1556367313705,,40.857691577376094,,,,,,,,
1556367313710,,,,,-1.2210801839828491,-15.378427505493164,-0.8140534162521362,,239.92875778765256,47.170761821855145
1556367313711,,,,7.778119664019865,,,,,,
1556367313729,,,,,-1.1995316743850708,-14.911543846130371,-0.40942099690437317,,249.9200472980064,46.4540297371256
1556367313745,,34.27215077183413,,,,,,,,
1556367313747,,,148.779296875,,,,,,,
1556367313762,,,,,-1.0008069276809692,-14.157346725463867,-0.42139238119125366,,241.33371403954584,46.15497648459834
1556367313772,,,,8.40773331839341,-0.5794144868850708,-13.175694465637207,-0.22745610773563385,,237.53694848371913,46.53161238866826
1556367313779,,,,,,,,1012.768798828125,,
1556367313784,8080.0,,,,,,,,,
1556367313785,,35.76236000962316,148.779296875,,,,,,,
1556367313790,,,,,-0.48124924302101135,-11.873208999633789,-0.2897072434425354,,223.5733507256801,46.0721854795898
1556367313810,,,,,-0.40942099690437317,,-0.12210801243782043,,235.10240951633813,45.9150956608431
1556367313811,,,,,,-10.49171257019043,,,,
1556367313825,,31.93746908699724,148.779296875,,,,,,,
1556367313833,,,,8.009112889841582,-0.1412622183561325,-9.658504486083984,0.0071828244253993034,,250.96159650492,46.34789161879242
1556367313857,4702.0,,,,-0.031125571578741074,-9.35203742980957,-0.021548472344875336,,210.76469697515518,46.71985445662915
1556367313869,,42.501010163988546,148.779296875,,,,,,,
1556367313874,,,,,0.23224465548992157,-9.172467231750488,-0.019154198467731476,,67.63310689735653,46.299786245557144
1556367313894,,,,8.77899206054551,0.6009629964828491,-8.80374813079834,-0.004788549616932869,1012.75244140625,61.01009785543778,45.54786529429708
1556367313895,4702.0,,,,,,,,,
1556367313905,,39.491314210570984,,,,,,,,
1556367313913,,,,,0.6943396925926208,-8.367990493774414,0.29928433895111084,,35.97193916958628,45.36940229274845
1556367313933,,,,,0.9577099084854126,,,,,
1556367313934,,,,,,-7.937020778656006,0.2490045726299286,,42.84492288984376,45.2467633934012
1556367313945,,30.40293921707814,,,,,,,,
1556367313946,,,251.1474609375,,,,,,,
1556367313954,,,,,1.314456820487976,,,,,
1556367313955,,,,9.343287836082682,,-7.654496669769287,0.25858166813850403,,45.00157219574817,45.22248925816216
1556367313972,,,,,1.7358492612838745,-8.0399751663208,0.5889915823936462,,36.7831504920249,45.549958349550145
1556367313985,,33.36553891801715,251.1474609375,,,,,,,
1556367313987,,,,,,,,1012.74755859375,,
1556367313992,,,,,2.4038519859313965,-8.789382934570312,0.5985686779022217,,40.849469463446155,45.575873749912205
1556367313994,4702.0,,,,,,,,,
1556367314015,,,,,2.98087215423584,,0.1484450399875641,,,
1556367314016,,,,10.75980728260451,,-9.718361854553223,,,51.73753549106601,46.323342819011614
1556367314025,,26.98823737688693,251.1474609375,,,,,,,
1556367314033,7833.0,,,,2.76059889793396,,0.0071828244253993034,,53.67890747961542,47.10278945615249
1556367314034,,,,,,-10.652128219604492,,,,
1556367314054,,,,,1.4174107313156128,,-0.1484450399875641,,59.5144503517451,
1556367314055,,,,,,-11.248303413391113,,,,46.45608109479686
1556367314065,,23.015553120226556,,,,,,,,
1556367314077,,,,,0.05506832152605057,-11.478153228759766,-0.3471698462963104,,135.67848401301507,46.014875526645376
1556367314078,,,,7.183607556743121,,,,,,
1556367314087,,,,,,,,1012.738037109375,,
1556367314095,,,,,-0.5746259689331055,-11.751100540161133,-0.8260248303413391,,179.44420519543573,45.78015720005469
1556367314099,7833.0,,,,,,,,,
1556367314106,,28.426838710176746,0.0,,,,,,,
1556367314119,,,,,-0.7374366521835327,-13.221185684204102,-1.8411973714828491,,165.08833601298448,46.48129907583439
1556367314139,,,,7.342476462461875,-0.33998700976371765,-16.17332649230957,-3.567469358444214,,147.25937027909515,46.40715722124579
1556367314145,,26.05487060620586,,,,,,,,
1556367314159,,,,,-0.3184385597705841,-18.344934463500977,-5.34162712097168,,145.41431761822128,46.51165051448447
1556367314174,,,,,-0.8547561168670654,,-6.759037971496582,,,
1556367314175,,,,,,-19.61629295349121,,,149.00914180104735,47.395481218136005
1556367314185,,,,,,,,1012.744384765625,,
1556367314186,,28.075729916274426,,,,,,,,
1556367314197,,,,11.402850253181631,-1.80049467086792,-19.118284225463867,-7.276201248168945,,156.24448413224692,47.86665034849768
1556367314203,7833.0,,,,,,,,,
1556367314224,5060.0,,,,-2.451737403869629,-16.822174072265625,-7.623371124267578,,160.568034858,48.285053026988535
1556367314225,,28.70360436758905,0.0,,,,,,,
1556367314236,,,,,-3.1772027015686035,-15.198856353759766,-7.6425251960754395,,170.86089771077746,47.308733014913045
1556367314259,,,,11.244097708414277,-3.931399345397949,-13.704829216003418,-6.7398834228515625,,205.84208401767864,46.934306676467315
1556367314265,,28.225172148394773,,,,,,,,
1556367314276,,,,,-4.453351020812988,-12.632193565368652,-5.6217570304870605,,247.04252275162588,48.20752582085256
1556367314287,,,,,,,,1012.744140625,,
1556367314296,,,,,-4.6640472412109375,-11.368017196655273,-4.070267200469971,,273.63284534145737,48.62910173557264
1556367314305,,30.69954255772045,0.0,,,,,,,
1556367314306,5060.0,,,,,,,,,
1556367314326,,,,10.67740229928796,-4.434196949005127,-10.312141418457031,-3.1412885189056396,,284.73998285651624,47.7034708130743
1556367314346,,27.681869921054812,,,-3.7302801609039307,-9.766246795654297,-3.445361375808716,,285.99705868268956,47.506094296869165
1556367314366,,,,,-2.818061351776123,-9.287391662597656,-3.993650436401367,,285.27111885694393,47.86123708434135
1556367314380,,,,9.527498301073221,-1.9465453624725342,-8.63136100769043,-4.836435317993164,,287.3063034937435,48.06838773343655
1556367314386,,33.110880139517455,0.0,,,,,,,
1556367314388,,,,,,,,1012.749755859375,,
1556367314403,9454.0,,,,-1.503604531288147,-8.04236888885498,-5.267404556274414,,294.4080404945884,48.27822962469298
1556367314416,9454.0,,,,,,,,,
1556367314419,,,,,-1.1229149103164673,-7.568302631378174,-5.5355634689331055,,302.99066154523507,48.434608006029684
1556367314425,,22.775507463006768,,,,,,,,
1556367314442,,,,,-0.8547561168670654,,,,,
1556367314443,,,,8.96845396397318,,-7.122967720031738,-5.6217570304870605,,311.2553441202068,48.33010135462416
1556367314460,,,,,-0.9385557174682617,-6.703969478607178,-5.466129302978516,,317.3295611226934,48.65914956634966
1556367314465,,23.71272106763689,,,,,,,,
1556367314488,,,,,-1.1636176109313965,-6.363982677459717,-5.164450645446777,,317.9499403748165,48.82499702802846
1556367314491,,,,,,,,1012.749755859375,,
1556367314505,,28.060791747000543,0.0,,,,,,,
1556367314507,,,,,-1.3216396570205688,,,,,
1556367314508,,,,8.346663177213255,,-7.601822376251221,-5.1907877922058105,,319.3154249634963,48.46830080429094
1556367314528,,,,,-1.1540404558181763,-9.416683197021484,-5.844424724578857,,306.356623164447,48.347343477315036
1556367314529,9454.0,,,,,,,,,
1556367314542,,,,,-1.0941835641860962,-12.091087341308594,-6.919454097747803,,301.2912046118038,48.08452625404231
1556367314545,,27.018385724598986,,,,,,,,
1556367314568,,,,9.093950511910977,-1.6328954696655273,-14.233963966369629,-7.802941799163818,,298.4848028252506,48.32443897099662
1556367314585,,24.444484449703047,0.0,,,,,,,
1556367314592,9974.0,,,,,,,,,
1556367314593,,,,,-2.571451187133789,-14.176501274108887,-7.06071662902832,,297.0105543042275,48.53410209868182
1556367314594,,,,,,,,1012.760498046875,,
1556367314616,,,,,-3.744645833969116,-13.252310752868652,-5.523591995239258,,303.1912949370096,48.59603445918285
1556367314625,,28.456744656587762,,,,,,,,
1556367314626,,,,8.876624589973833,-4.189980983734131,,-4.364762783050537,,,
1556367314627,,,,,,-12.589097023010254,,,307.5788308749074,48.847736428003664
1556367314634,9974.0,,,,,,,,,
1556367314644,,,,,-4.036747455596924,-12.730359077453613,-3.8212625980377197,,305.6544011705942,48.45908952929078
1556367314666,,41.523188580777806,,,,,,,,
1556367314667,,,,,-3.438178539276123,-14.05439281463623,-3.7278859615325928,,298.6788553297598,48.32965477032198
1556367314668,,,39.287109375,,,,,,,
1556367314691,,,,,-2.7701759338378906,,,,,
1556367314692,,,,7.861418623314503,,-15.328146934509277,-3.962524890899658,,280.8437834067525,48.406801174284986
1556367314696,,,,,,,,1012.7685546875,,
1556367314705,,43.64485872780339,39.287109375,,,,,,,
1556367314708,,,,,-2.226675510406494,-16.283462524414062,-3.723097324371338,,264.1901019837256,47.92118458730938
1556367314738,,,,,-1.6305011510849,-16.88203239440918,-3.533949613571167,,245.246483528236,47.66304058980325
1556367314741,9974.0,,,,,,,,,
1556367314745,,41.582891563090826,39.287109375,,,,,,,
1556367314762,,,,7.654089050508573,-1.0798178911209106,-16.803020477294922,-3.0239691734313965,,224.45777826092672,48.01488338197697
1556367314783,7132.0,,,,-0.7613793611526489,-16.249942779541016,-2.233858346939087,,204.8973595724391,48.20726232780941
1556367314785,,35.57472555390068,39.287109375,,,,,,,
1556367314787,,,49.0869140625,,,,,,,
1556367314790,,,,,-0.3208328187465668,-15.888407707214355,-1.4772675037384033,,193.23494816842572,47.67074538941509
1556367314811,,,,,,,,1012.778076171875,,
1556367314812,,,,8.30987828722163,-0.14365649223327637,,,,,
1556367314813,,,,,,-15.926715850830078,-1.412622094154358,,179.94927036380147,47.440463167932094
1556367314825,,36.22507247067609,49.0869140625,,,,,,,
1556367314832,,,,,-0.026337023824453354,-15.246742248535156,-1.0439038276672363,,168.35443685143622,47.474712222319404
1556367314855,7132.0,,,,-0.09337671846151352,-13.59229850769043,-0.7182824611663818,,168.78602284471097,46.84347769485336
1556367314866,,37.72045601967612,49.0869140625,,,,,,,
1556367314877,,,,8.214259556319957,-0.22745610773563385,-11.961796760559082,-0.11013664305210114,,223.46712762370805,46.763829763390966
1556367314898,,,,,-0.38787251710891724,,0.4142095446586609,,,
1556367314899,,,,,,-11.080703735351562,,,294.4303137414718,46.64466454632994
1556367314904,,,,,,,,1012.785400390625,,
1556367314905,,36.53998652830306,,,,,,,,
1556367314911,,,,,-0.3830839693546295,-10.436643600463867,0.6344828009605408,,304.3232485277775,47.0751129748042
1556367314943,,,,8.693714581108207,-0.04070267081260681,-9.80455493927002,0.39266106486320496,,326.61135790282304,47.43731252249968
1556367314945,,32.249688665909616,,,,,,,,
1556367314947,,,46.455078125,,,,,,,
1556367314964,5937.0,,,,0.2944957911968231,-9.239506721496582,0.3543526828289032,,10.761757900619727,46.051787201237936
1556367314965,5937.0,,,,,,,,,
1556367314973,,,,,0.5291347503662109,-8.61220645904541,0.2849186956882477,,31.25301952863242,45.63480186672674
1556367314985,,29.16561069069172,46.455078125,,,,,,,
1556367314996,,,,9.118122173865574,0.8427847623825073,-7.87237548828125,0.39266106486320496,,32.63701051486834,45.64600091970663
1556367315007,,,,,,,,1012.75732421875,,
1556367315014,,,,,0.9577099084854126,-7.264229774475098,0.6033572554588318,,25.144533759532578,45.74420508093162
1556367315025,,32.38784782187997,46.455078125,,,,,,,
1556367315044,,,,,1.1277034282684326,-6.792557716369629,0.5506832003593445,,31.097612234447126,45.43303409609049
1556367315058,,,,9.572632850089738,1.781340479850769,-7.288172721862793,0.2944957911968231,,48.13966845896471,44.67313112269415
1556367315066,,29.462787215414426,46.455078125,,,,,,,
1556367315067,5937.0,,,,,,,,,
1556367315076,,,,,2.0542876720428467,-7.635342597961426,-0.06703969836235046,,59.487628198874404,45.113416186585894
1556367315096,,,,,2.6217308044433594,,,,,
1556367315097,,,,,,-8.722343444824219,-0.30886146426200867,,63.0961947223106,45.1449671650479
1556367315105,,35.112083279957545,,,,,,,,
1556367315107,,,,,,,,1012.750732421875,,
1556367315119,,,,9.872965542753526,2.6456737518310547,-10.700014114379883,-0.5626545548439026,,67.6155328206221,44.696940151275676
1556367315136,7015.0,,,,,,,,,
1556367315137,,,,,1.5395187139511108,,-0.7829278707504272,,82.95921811178641,45.452483750364514
1556367315138,,,,,,-11.755888938903809,,,,
1556367315145,,29.146075677710805,,,,,,,,
1556367315146,,,0.0,,,,,,,
1556367315156,,,,,0.18675343692302704,-12.462200164794922,-1.2450228929519653,,137.66456641987136,45.983569634695385
1556367315167,7015.0,,,,,,,,,
1556367315177,,,,5.964765726814528,-0.7110996246337891,-12.986546516418457,-1.5155760049819946,,171.57495300736727,45.60635517647634
1556367315185,,29.80383974874278,,,,,,,,
1556367315213,,,,,-1.3791022300720215,-13.43427562713623,-1.8076775074005127,1012.764892578125,184.91971194831217,45.33939779802985
1556367315225,,26.315726015510208,0.0,,,,,,,
1556367315233,,,,,-1.2905141115188599,-14.971400260925293,-2.7701759338378906,,173.393163024803,44.92854236500997
1556367315244,,,,8.48104090366096,-0.6057515144348145,-17.617074966430664,-4.71193265914917,,154.67959217074863,45.59719554268031
1556367315263,,,,,-0.48843204975128174,-19.216449737548828,-6.105400562286377,,150.2963455916496,46.25719695765883
1556367315265,,30.390398258646236,,,,,,,,
1556367315305,,32.339203150586876,,,,,,,,
1556367315345,,42.883878455082034,,,,,,,,
1556367315351,,,3673.5986328125,,,,,,,
1556367315385,,46.60087196373076,3673.5986328125,,,,,,,
1556367315423,,,,,-0.9696813225746155,,,,,
1556367315424,,,,,-2.4373717308044434,,-6.44059944152832,,154.3153928238252,46.326526227749106
1556367315425,,33.71590850411935,3673.5986328125,10.735119478709493,,-19.32179832458496,,1012.78125,,
1556367315472,,36.74507574216723,,,,,,,,
1556367315485,4304.0,,,,,,,1012.80078125,,
1556367315486,,,,9.449846086812903,-2.351177930831909,-9.579493522644043,-4.3264546394348145,,271.5877637605505,47.568343987596386
1556367315512,,39.602944116946695,,,,,,,,
1556367315517,,,2684.0087890625,,,,,,,
1556367315536,9515.0,,,,,,,,,
1556367315537,,,,,-1.039115309715271,,-5.188393592834473,,288.5436537335938,
1556367315538,,,,,,-8.3033447265625,,1012.805908203125,,48.08085451796464
1556367315539,9515.0,,,,,,,,,
1556367315549,,,,,-0.9529213905334473,,,,,
1556367315550,,39.7927742002942,2684.0087890625,8.786563012645804,,-7.319298267364502,-5.083045482635498,,302.3105352133473,47.90318768247921
1556367315585,,33.95675389292778,2684.0087890625,,,,,,,
1556367315625,,29.799430422706322,2684.0087890625,,,,,,,
1556367315628,,,0.0,,,,,,,
1556367315667,,34.58942685849387,,,,,,,,
1556367315673,,,,8.266474141165778,-0.9385557174682617,,-5.042342662811279,,,
1556367315674,,,,,,-6.981705188751221,-4.45095682144165,1012.796630859375,306.15242782902027,47.705771868548325
1556367315675,9515.0,,,,,,,,,
1556367315687,9898.0,,,,-1.503604531288147,,-5.942590236663818,,285.1855365866437,
1556367315688,,,,,,-13.551595687866211,,,283.44439842380234,48.367927355127186
1556367315705,,35.88815163975072,,,,,,,,
1556367315706,,,0.0,,-2.3679378032684326,-12.984151840209961,-4.838829517364502,,281.6537755404243,47.982820517199386
1556367315715,,,,,,,,1012.77490234375,,
1556367315731,,,,7.711243968311362,-3.071854591369629,,,,,
1556367315738,,,,,,-12.553182601928711,-3.876330852508545,,292.02599836116815,47.89319431154306
1556367315746,,,,,-3.1005859375,-12.926690101623535,-3.725491523742676,,286.94112059957956,48.32809006950236
1556367315750,,35.078361447692515,,,,,,,,
1556367315768,,,,,-2.5594797134399414,,,,,
1556367315769,,,,,,,-3.969707727432251,,270.747773436044,
1556367315770,,,,,,-13.910737037658691,,,,48.42788041361072
1556367315775,9898.0,,,,,,,,,
1556367315785,,34.61390812135252,,,,,,,,
1556367315786,,,312.2314453125,,,,,,,
1556367315787,,,,6.935938203987349,-2.164424419403076,-14.394380569458008,-4.1061811447143555,,260.41486518416275,48.09193436123963
1556367315806,,,,,-1.752609133720398,,,,,
1556367315807,,,,,,-14.93309211730957,-4.343214511871338,,248.66660513247155,48.08733071220717
1556367315816,,,,,,,,1012.75732421875,,
1556367315825,,40.278158634552305,312.2314453125,,,,,,,
1556367315828,,,,,-1.3599480390548706,,-4.369551658630371,,,
1556367315829,,,,,,-15.31378173828125,,,232.75617123454708,48.76848581167293
1556367315848,,,,6.265903533300129,-1.1564347743988037,-15.36406135559082,-3.8859081268310547,,219.68794297480497,48.48564189176393
1556367315865,,39.25874884250807,312.2314453125,,,,,,,
1556367315869,8022.0,,,,-1.1348862648010254,-14.971400260925293,-2.906649589538574,,215.9160119868004,48.13222836592113
1556367315875,8022.0,,,,,,,,,
1556367315890,,,,,-1.0055954456329346,-14.636201858520508,-1.9752767086029053,,214.04709464496653,48.40122219151988
1556367315905,,37.60688775067366,312.2314453125,,,,,,,
1556367315906,,,270.4931640625,,,,,,,
1556367315910,,,,,-0.7087053656578064,,-1.211503028869629,,208.98980401743563,
1556367315911,,,,6.179526074949949,,-14.303398132324219,,,,48.0411573598253
1556367315919,,,,,,,,1012.7412109375,,
1556367315929,,,,,-0.5985686779022217,,,,,
1556367315930,,,,,,-14.152558326721191,-1.192348837852478,,199.2858264145184,47.20653995350025
1556367315945,,37.27615202548012,270.4931640625,,,,,,,
1556367315950,,,,,-0.15083931386470795,-13.57314395904541,-0.9816526770591736,,175.80301768852357,47.05212723494094
1556367315971,,,,6.991086461844982,0.03351984918117523,-12.217984199523926,-0.8547561168670654,,160.9237511099743,47.233910131688596
1556367315975,8022.0,,,,,,,,,
1556367315985,,33.163844040610975,270.4931640625,,,,,,,
1556367315988,,,0.0,,,,,,,
1556367315991,,,,,0.05985686928033829,-10.95141315460205,-0.56504887342453,,154.39138550853076,46.92667239310017
1556367316010,,,,,-0.1364736706018448,,-0.33519846200942993,,181.15849069692626,46.787881765599266
1556367316011,,,,,,-9.92426872253418,,,,
1556367316020,,,,,,,,1012.7333984375,,
1556367316026,,36.46341866481957,,,,,,,,
1556367316031,,,,,-0.05506832152605057,,,,,
1556367316032,,,,7.101459901108418,,-9.292180061340332,-0.15562786161899567,,176.1680366581474,46.604551512417636
1556367316052,,,,,,,,,175.00115347996407,
1556367316053,4811.0,,,,-0.09337671846151352,,-0.1005595400929451,,,46.17536887082167
1556367316054,,,,,,-8.686429023742676,,,,
1556367316066,,35.93438281570945,,,,,,,,
1556367316076,,,,,0.12210801243782043,-8.44221305847168,0.021548472344875336,,55.237269780267184,45.17219053063308
1556367316077,4811.0,,,,,,,,,
1556367316079,,,254.2578125,,,,,,,
1556367316099,,,,7.817502548759004,0.2849186956882477,-8.226728439331055,0.20830190181732178,,27.701889773474193,44.83549958181413
1556367316108,,30.743451331373535,,,,,,,,
1556367316109,,,254.2578125,,,,,,,
1556367316113,,,,,0.43336373567581177,,,,,
1556367316114,,,,,,-7.929838180541992,0.4309694766998291,,18.198543854784134,45.352817300601586
1556367316123,,,,,,,,1012.7353515625,,
1556367316133,,,,,0.541106104850769,,0.5099805593490601,,,
1556367316134,,,,,,-7.546754360198975,,,19.20280022882946,45.49923089100491
1556367316146,,29.889230468332315,254.2578125,,,,,,,
1556367316152,,,,8.296752698898509,0.7230709791183472,,,,,
1556367316153,,,,,,-7.3959150314331055,0.6081457734107971,,21.22902878007983,45.04673440638426
1556367316171,,,,,0.96010422706604,,,,,
1556367316172,,,,,,-7.565908432006836,0.8164477348327637,,20.573298176360026,44.63306324417031
1556367316176,4811.0,,,,,,,,,
1556367316185,,25.684345522942532,,,,,,,,
1556367316186,,,254.2578125,,,,,,,
1556367316191,,,,,1.4054392576217651,,0.742225170135498,,32.40695608324398,
1556367316192,,,,,,-8.439818382263184,,,32.78815577101153,44.66861872313508
1556367316213,,,,8.911658428419718,1.7430320978164673,,0.5794144868850708,,42.01025328270066,
1556367316214,,,,,,-9.653716087341309,,,,44.29198938247567
1556367316222,,,,,,,,1012.73291015625,,
1556367316226,,26.90807127103254,,,,,,,,
1556367316236,5861.0,,,,1.92020845413208,-11.530827522277832,0.5099805593490601,,44.9723458162897,44.330336798763824
1556367316253,,,,,1.2641770839691162,-12.78542709350586,0.33998700976371765,,43.56396422452764,44.81783084538096
1556367316265,,24.20268298965446,0.0,,,,,,,
1556367316272,,,,7.253593343581026,-0.21548473834991455,,,,,
1556367316276,,,,,,-13.127808570861816,0.09816526621580124,,264.0298520854187,44.791557671250324
1556367316285,5861.0,,,,,,,,,
1556367316293,,,,,-1.1731946468353271,-13.271465301513672,-0.8547561168670654,,204.34278919296912,44.9613414096283
1556367316306,,25.35266843530055,,,,,,,,
1556367316313,,,,,-1.4245935678482056,,-2.14048171043396,,,
1556367316314,,,,,,-13.269070625305176,,,183.49941509154303,45.0221130807428
1556367316323,,,,,,,,1012.741455078125,,
1556367316337,,,,4.259628832412162,-1.4054392576217651,-13.546807289123535,-3.2466366291046143,,184.02387799715166,45.30492637989516
1556367316346,,26.122328629639124,0.0,,,,,,,
1556367316379,,,,,-1.0798178911209106,-15.079142570495605,-4.000833034515381,,162.73343705132584,45.79756963793184
1556367316380,,,,,-1.8866885900497437,,-4.498842239379883,,172.91005008442966,
1556367316381,,,,,,-17.210046768188477,,,,46.420654950696665
1556367316385,5861.0,,,,,,,,,
1556367316386,,21.47104697169202,,,,,,,,
1556367316395,,,,9.009985153067461,-1.5347301959991455,-16.83414649963379,-6.253845691680908,,162.2634653949156,47.07507691933887
1556367316415,4716.0,,,,-2.1548473834991455,,-5.822876453399658,,171.28938279816904,
1556367316416,,,,,,-14.86365795135498,,,,47.147975212690675
1556367316424,,,,,,,,1012.765625,,
1556367316425,,33.99630266710353,,,,,,,,
1556367316434,,,,,-2.4349775314331055,-13.118231773376465,-5.45176362991333,,178.9216410824164,46.88630300873238
1556367316456,,,,8.04794535508763,-2.7151076793670654,-12.373612403869629,-4.944177627563477,,194.60198321004714,46.388459036236526
1556367316466,,40.561519108634585,0.0,,,,,,,
1556367316475,,,,,-2.8084843158721924,-12.136578559875488,-4.467716693878174,,208.91214476657262,45.901333264054394
1556367316485,4716.0,,,,,,,,,
1556367316496,,,,,-3.1221344470977783,-11.729552268981934,-3.8308396339416504,,228.36020684321352,46.43356495727355
1556367316505,,38.1849617904964,,,,,,,,
1556367316520,,,,8.370444809774243,-3.131711483001709,,-3.316070556640625,,247.14237328710232,47.13564006231517
1556367316521,,,,,,-10.795784950256348,,,,
1556367316527,,,,,,,,1012.7919921875,,
1556367316539,,,,,-2.7055306434631348,,,,,
1556367316540,,,,,,-9.967366218566895,-3.375927448272705,,251.98730650314832,46.63493817344636
1556367316548,,36.969773856901696,,,,,,,,
1556367316551,,,0.0,,,,,,,
1556367316559,,,,,-2.049499273300171,-9.59385871887207,-3.9481592178344727,,248.89946677184474,46.73403032447185
1556367316581,,,,7.722472987993741,-1.2857255935668945,-9.349642753601074,-4.546727657318115,,251.3740921194646,47.24122759292342
1556367316585,,31.296654177530826,,,,,,,,
1556367316588,4716.0,,,,,,,,,
1556367316602,8836.0,,,,-0.8547561168670654,-8.9234619140625,-5.116565227508545,,265.93699799603723,47.53132166251483
1556367316620,,,,,-1.0774236917495728,,,,,
1556367316621,,,,,,-8.332076072692871,-5.169239521026611,,283.2235988985034,47.67584102754955
1556367316625,,31.20626338521496,0.0,,,,,,,
1556367316640,,,,,,,,1012.78759765625,,
1556367316643,,,,8.266542437860773,-1.3240339756011963,-7.5802741050720215,-5.138113975524902,,296.5620157814328,47.33824949917735
1556367316661,,,,,-1.314456820487976,-7.269018173217773,-5.358386993408203,,308.7011641442293,47.340075278784376
1556367316665,,31.82378902008089,,,,,,,,
1556367316681,,,,,-1.52036452293396,,,,,
1556367316682,,,,,,-6.905088424682617,-5.590631484985352,,315.1096266990342,48.21234064726132
1556367316689,8836.0,,,,,,,,,
1556367316703,,,,8.911105789770671,-1.472478985786438,,-5.964138507843018,,,
1556367316704,,,,,,-6.87156867980957,,,316.45152664450995,48.06243425602776
1556367316705,,32.30145266749354,,,,,,,,
1556367316708,,,257.9296875,,,,,,,
1556367316709,,,257.9296875,,,,,,,
1556367316722,,,,,-1.2929084300994873,,-5.705556869506836,,,
1556367316723,,,,,,-6.845231533050537,,,316.16321411435996,47.53223156355593
1556367316732,,,,,,,,1012.7734375,,
1556367316742,,,,,-1.6328954696655273,,-5.822876453399658,,315.2087293287965,
1556367316743,,,,,,-7.309720993041992,,,316.32392846553034,47.53446717112604
1556367316745,,31.176993951282732,257.9296875,,,,,,,
1556367316764,,,,7.899727403790539,-0.8978530764579773,-10.1852445602417,-6.275394439697266,,303.5799941724859,47.389592680475616
1556367316784,9295.0,,,,,,,,,
1556367316785,,40.3133631631859,257.9296875,,,,,,,
1556367316786,,,,,-0.5818088054656982,-13.161328315734863,-7.204372882843018,,299.5374852405113,47.77439304674107
1556367316790,9295.0,,,,,,,,,
1556367316804,,,,,-1.2330515384674072,,,,,
1556367316805,,,,,,-14.375226020812988,-7.283383846282959,,295.2177935716393,47.44668527519616
1556367316825,,36.61491435698671,257.9296875,,,,,,,
1556367316828,,,0.0,8.917784813860901,-2.171607255935669,,,,,
1556367316829,,,,,,-14.2626953125,-6.170046329498291,,292.23984475389204,47.6753147574378
1556367316834,,,,,,,,1012.765380859375,,
1556367316844,,,,,-2.8659470081329346,,-4.4174370765686035,,293.28776652730124,47.545179940915375
1556367316845,,,,,,-13.774263381958008,,,,
1556367316865,,38.99318605961167,,,-3.1843855381011963,,-3.560286521911621,,295.3701614316439,
1556367316866,,,,,,-13.336111068725586,,,,46.92483293262754
1556367316887,,,,,-2.6744048595428467,,,,,
1556367316888,,,,6.443176729470293,,-13.429487228393555,,,,
1556367316890,9295.0,,,,,,,,,
1556367316905,,36.772229509770995,,,,,,,,
1556367316906,,,,,-2.013585090637207,-14.31297492980957,-3.9481592178344727,,270.7324464915465,47.69943355871755
1556367316919,,,14.3203125,,,,,,,
1556367316927,,,,,-1.4198049306869507,,-4.103786945343018,,253.57715597587384,
1556367316928,,,,,,-15.273078918457031,,,,47.20230797960072
1556367316936,,,,,,,,1012.7646484375,,
1556367316945,,34.58819270262904,14.3203125,,,,,,,
1556367316950,,,,6.473173683678084,,,,,,
1556367316952,,,,,-1.2210801839828491,-15.737567901611328,-3.7278859615325928,,237.41508424854777,46.15092130613859
1556367316969,8349.0,,,,,,,,,
1556367316970,,,,,-1.0151724815368652,-15.443072319030762,-3.280156373977661,,229.76725313299278,46.579093156039924
1556367316985,,37.74155254785377,14.3203125,,,,,,,
1556367316988,,,,,-0.96010422706604,,-2.815667152404785,,,
1556367316989,,,,,,-15.098297119140625,,,223.07956902982318,46.75297631993432
1556367316991,8349.0,,,,,,,,,
1556367317009,,,,,-0.5123748183250427,,,,,
1556367317010,,,,6.487889084513484,,-14.95464038848877,-2.2745611667633057,,206.42717168236027,46.47285483083082
1556367317025,,43.23725175474034,,,,,,,,
1556367317028,,,,,-0.3543526828289032,-14.550007820129395,-1.6376839876174927,,197.45937918894356,46.31106065622198
1556367317040,,,,,,,,1012.75244140625,,
1556367317048,,,,,-0.2178790122270584,,-1.0893950462341309,,,
1556367317049,,,,,,-14.011296272277832,,,189.6981532727881,45.90693975038507
1556367317065,,36.528190742476184,,,,,,,,
1556367317070,,,,7.634193256477471,-0.2944957911968231,,-0.6536370515823364,,197.5590453093124,45.5787171908591
1556367317071,,,,,,-13.14456844329834,,,,
1556367317089,,,,,-0.3591412305831909,,-0.31604427099227905,,218.32679555624816,
1556367317090,,,,,,-12.067145347595215,,,215.51256637290612,45.405927910095976
1556367317092,8349.0,,,,,,,,,
1556367317105,,31.410565663572896,,,,,,,,
1556367317108,,,0.0,,,,,,,
1556367317110,,,,,-0.5387118458747864,,-0.13407939672470093,,243.83132297372276,45.61759956075139
1556367317111,,,,,,-10.716773986816406,,,,
1556367317131,,,,,-0.3495641350746155,,,,,
1556367317132,,,,7.459799794637536,,-9.634561538696289,0.0766167938709259,,268.55832214665054,45.10276259337878
1556367317140,,,,,,,,1012.743896484375,,
1556367317145,,33.47904799179773,,,,,,,,
1556367317151,5035.0,,,,-0.15562786161899567,-8.875576972961426,-0.026337023824453354,,265.92129539113535,44.31965687415817
1556367317170,,,,,0.05027977004647255,-8.806142807006836,-0.13886794447898865,,241.18784851963102,43.95465669978912
1556367317185,,32.27416487451305,,,,,,,,
1556367317190,,,,,0.3184385597705841,-8.894730567932129,-0.33519846200942993,,115.70523503071357,43.78623055506507
1556367317192,,,,7.92850687793588,,,,,,
1556367317193,5035.0,,,,,,,,,
1556367317194,,,40.5078125,,,,,,,
1556367317195,,,40.5078125,,,,,,,
1556367317212,,,,,0.49322059750556946,,-0.10295381397008896,,114.21872632013032,
1556367317213,,,,,,-8.588263511657715,,,,43.74074001884561
1556367317225,,32.56753188417351,40.5078125,,,,,,,
1556367317231,,,,,0.4429408311843872,-8.01124382019043,0.33280420303344727,,79.25369022289277,43.84000821639076
1556367317258,,,,8.47582352049557,0.5339232683181763,,0.8715160489082336,1012.7451171875,30.538544175408617,44.18693429851654
1556367317259,,,,,,-7.546754360198975,,,,
1556367317265,,30.06600157374713,40.5078125,,,,,,,
1556367317269,,,,,,,,,8.05645486661382,43.69029912467713
1556367317270,,,,,0.8499675393104553,,0.8164477348327637,,22.440530169016256,
1556367317271,,,,,,-7.1421217918396,,,,
1556367317291,,,,,1.9130256175994873,-7.436617374420166,0.41660380363464355,,53.0719563794006,43.74411314265561
1556367317293,5035.0,,,,,,,,,
1556367317306,,23.497135263455835,,,,,,,,
1556367317312,,,,,2.602576732635498,,,,,
1556367317313,,,,,,-9.01205062866211,0.11013664305210114,,62.09226619734545,44.031252992723864
1556367317315,,,,9.940046260119734,,,,,,
1556367317334,6032.0,,,,2.856369733810425,-11.207600593566895,0.3184385597705841,,57.83170347611821,43.97582298945234
1556367317345,,29.570765635365,,,,,,,,
1556367317349,,,,,,,,1012.75244140625,,
1556367317352,,,,,2.049499273300171,,0.5985686779022217,,,
1556367317353,,,,,,-12.438257217407227,,,47.79476439644657,43.846043641768745
1556367317373,,,,8.568968619709516,0.3304099142551422,,0.19393625855445862,,,
1556367317374,,,,,,-12.399949073791504,,,33.880350830620785,44.04878611038865
1556367317385,,29.513581725569654,0.0,,,,,,,
1556367317392,6032.0,,,,-0.8715160489082336,-12.220378875732422,-0.31604427099227905,,225.78597684692738,44.18477400841617
1556367317414,,,,,-1.6161354780197144,-11.7822265625,-0.651242733001709,,225.61007215504287,43.48551346248413
1556367317425,,26.87507222388243,,,,,,,,
1556367317434,,,,,-1.3647366762161255,,,,,
1556367317435,,,,3.955864842666188,,-12.292206764221191,-2.099778890609741,,189.25629467500164,43.18070409450745
1556367317447,,,,,,,,1012.76513671875,,
1556367317455,,,,,-0.1891477108001709,,,,,
1556367317456,,,,,,-14.978583335876465,-5.0016398429870605,,153.44126521384698,43.25284282053027
1556367317466,,22.609362798233427,0.0,,,,,,,
1556367317474,,,,,0.6943396925926208,,-7.331269264221191,,,
1556367317475,,,,,,-17.83495330810547,,,143.05929571315755,43.72633571315924
1556367317493,6032.0,,,,,,,,,
1556367317496,,,,,-0.2011190801858902,,,,,
1556367317497,,,,10.572660536396272,,-18.189306259155273,-8.315316200256348,,148.41924568319004,44.19002798023887
1556367317505,,27.489935801483494,,,,,,,,
1556367317517,4399.0,,,,-1.2617827653884888,,,,,
1556367317518,,,,,,-16.005727767944336,-7.929838180541992,,155.45584316992057,44.4600807097059
1556367317536,,,,,-2.382303476333618,-13.913130760192871,-6.974522590637207,,162.30761573771056,44.30751035045654
1556367317545,,29.64829976689524,0.0,,,,,1012.785888671875,,
1556367317556,,,,9.19609321903405,-2.633702278137207,,,,,
1556367317557,,,,,,-13.482161521911621,-5.193181991577148,,192.02446106258105,44.514258794371365
1556367317575,,,,,-3.414235830307007,,,,,
1556367317576,,,,,,-13.551595687866211,-4.637710094451904,,217.66755935793685,45.02279427147047
1556367317585,,34.94596895070262,,,,,,,,
1556367317593,4399.0,,,,,,,,,
1556367317595,,,,,-3.1819913387298584,,,,,
1556367317596,,,,,,-13.055980682373047,-4.472505569458008,,227.3733264704167,45.20150857063803
1556367317617,,,,,-3.249030828475952,,,,,
1556367317618,,,,9.790187469651332,,-11.85166072845459,-5.013611316680908,,240.11811795220194,45.67738210124535
1556367317625,,32.334042340485084,,,,,,,,
1556367317638,,,,,-2.5187771320343018,,,,,
1556367317639,,,,,,-10.838882446289062,-4.898686408996582,,259.98269862480856,45.610104335204745
1556367317646,,,,,,,,1012.82275390625,,
1556367317656,,,,,-2.509200096130371,,-5.154873847961426,,261.04197217261833,
1556367317657,,,,,,-9.706390380859375,,,,45.6243464052474
1556367317665,,28.621858236865467,,,,,,,,
1556367317668,,,0.0,,,,,,,
1556367317678,,,,,-1.4916331768035889,,-5.801327705383301,,,
1556367317679,,,,,,-9.438231468200684,,,266.49070094148266,46.03834037263575
1556367317680,,,,9.471783142751967,,,,,,
1556367317694,4399.0,,,,,,,,,
1556367317700,8282.0,,,,-0.84517902135849,-9.129369735717773,-6.397502422332764,,280.62445237212506,46.087225818336826
1556367317706,,30.720130153195903,,,,,,,,
1556367317722,,,,,-1.144463300704956,,,,,
1556367317723,,,,,,-8.35362434387207,-6.378347873687744,,296.39769509038064,46.12973642058528
1556367317740,,,,,-1.2737542390823364,,,,,
1556367317741,,,,9.427019577794308,,,,,,
1556367317742,,,,,,-7.721536159515381,-6.033572673797607,,301.612892861333,46.3563570674068
1556367317745,,33.004287317497685,,,,,,,,
1556367317746,,,0.0,,,,,,,
1556367317750,,,,,,,,1012.828369140625,,
1556367317761,,,,,-1.7119064331054688,,-6.25145149230957,,309.96388853684624,46.22656299476748
1556367317762,,,,,,-7.106207847595215,,,,
1556367317784,,,,,-1.8579572439193726,,-6.203566074371338,,311.4413199260225,
1556367317785,,26.809857310933563,,,,-6.495667457580566,,,,46.19306460360516
1556367317794,8282.0,,,,,,,,,
1556367317802,,,,9.724275741477566,,,,,,
1556367317803,,,,,-1.9058427810668945,,-5.650488376617432,,315.48412597122604,46.37386585848049
1556367317804,,,,,,-6.375953674316406,,,,
1556367317823,,,,,-2.073441982269287,,-5.375146865844727,,,
1556367317824,,,,,,-7.101418972015381,,,313.8199879459928,46.205766266684776
1556367317826,,28.940776492933715,0.0,,,,,,,
1556367317842,,,,,,,,,309.7806345614148,45.940921276356015
1556367317843,,,,,-1.7573976516723633,-8.87078857421875,-6.016812801361084,,303.62151489245036,
1556367317852,,,,,,,,1012.833740234375,,
1556367317863,,,,8.324312693774212,,,,,,
1556367317865,,,,,-1.2162915468215942,,,,,
1556367317866,,30.99115072845203,,,,-11.205205917358398,-6.81171178817749,,303.489183392376,45.965010910373195
1556367317884,8791.0,,,,-0.9170072674751282,,,,,
1556367317885,,,,,,,-7.63294792175293,,287.99025131647187,46.45216849694801
1556367317886,,,,,,-13.769474029541016,,,,
1556367317894,8791.0,,,,,,,,,
1556367317906,,35.53590171556153,,,-1.5347301959991455,-14.17410659790039,-7.197190284729004,,286.0431897803438,46.90012157561079
1556367317925,,,,,-2.5929996967315674,,,,,
1556367317926,,,,8.7983778758968,,,-6.148497581481934,,,
1556367317927,,,,,,-13.139780044555664,,,290.5663186336447,46.65631790235912
1556367317944,,,,,-3.411841630935669,,,,,
1556367317946,,,,,,,-4.6640472412109375,,,
1556367317947,,37.310355393378046,,,,-12.52205753326416,,,293.2499955811911,45.689988759741425
1556367317952,,,0.0,,,,,,,
1556367317955,,,,,,,,1012.84423828125,,
1556367317964,,,,,-3.222693920135498,-12.704022407531738,-4.312088966369629,,287.90732598975876,45.928381261325214
1556367317985,,37.94039757473966,,,-2.5283541679382324,,,,,
1556367317986,,,,6.8184242737172065,,,,,,
1556367317987,,,,,,-13.647366523742676,-4.503631114959717,,273.40221717394274,46.35441784516707
1556367317995,8791.0,,,,,,,,,
1556367318004,,,,,-1.903448462486267,,-5.111776828765869,,260.49861696376547,
1556367318005,,,,,,-14.700847625732422,,,,45.775986777469434
1556367318025,,35.149706771305645,,,,,,,,
1556367318030,,,,,-1.3862850666046143,-15.893196105957031,-4.829252243041992,,243.7212066639238,44.88789892788383
1556367318034,,,4069.462890625,,,,,,,
1556367318046,,,,6.951832306098111,-1.1779831647872925,,-4.142095565795898,,,
1556367318047,,,,,,-15.917139053344727,,,230.2997620014437,44.73288658156263
1556367318055,,,,,,,,1012.85888671875,,
1556367318065,,42.944374187102035,4069.462890625,,,,,,,
1556367318067,7179.0,,,,-1.2737542390823364,-15.330541610717773,-3.905062198638916,,225.48445131582798,45.32550171511625
1556367318086,,,,,-1.0606637001037598,-15.129422187805176,-3.2155110836029053,,214.39782485884666,45.2191852797516
1556367318095,7179.0,,,,,,,,,
1556367318105,,37.18161161001912,,,,,,,,
1556367318106,,,4069.462890625,,,,,,,
1556367318107,,,,,-0.9409499764442444,-14.971400260925293,-2.298503875732422,,211.86482188439078,44.98951634292915
1556367318109,,,,6.553940777080051,,,,,,
1556367318126,,,,,-0.7925049662590027,-14.918725967407227,-1.6927522420883179,,210.15683745978072,44.23436608501575
1556367318145,,37.635243823856506,,,-0.6464542150497437,,,,,
1556367318146,,,,,,-14.430294036865234,-1.252205729484558,,205.74280038790334,44.24189342537574
1556367318154,,,,,,,,1012.856201171875,,
1556367318165,,,,8.3753365975678,,,,,,
1556367318167,,,,,-0.3136500120162964,-13.316956520080566,-0.7494080066680908,,198.9086360477936,44.145037715272295
1556367318185,,38.65911380067207,,,-0.016759924590587616,,,,,
1556367318186,,,,,,-11.909122467041016,-0.6799740195274353,,190.67299885226737,43.96861914110702
1556367318195,7179.0,,,,,,,,,
1556367318206,,,,,-0.45730647444725037,-10.508472442626953,-0.6680026650428772,,167.71137454107952,43.847602055506655
1556367318226,,29.900071906822276,,,,,,,,
1556367318230,,,,7.397711487609276,-0.17238777875900269,-9.658504486083984,-0.5219519138336182,,185.2097900823626,43.2588743502
1556367318242,,,43.06640625,,,,,,,
1556367318248,4041.0,,,,,,,,,
1556367318249,,,,,-0.17957061529159546,-8.904308319091797,-0.2298503816127777,,183.38999546103946,43.72999849955822
1556367318264,,,,,,,,1012.845703125,,
1556367318266,,,,,-0.09337671846151352,,,,,
1556367318267,,,,,,,-0.1652049571275711,,,
1556367318268,,34.42703156908178,,,,-8.80374813079834,,,194.64189883555673,43.62759171275428
1556367318269,,,43.06640625,,,,,,,
1556367318288,,,,8.365998398231902,0.21069619059562683,-8.672063827514648,0.04549122229218483,,61.99956686993005,43.09696082567387
1556367318295,4041.0,,,,,,,,,
1556367318305,,35.359178537829266,43.06640625,,,,,,,
1556367318309,,,,,0.38068968057632446,-8.090254783630371,0.25858166813850403,,39.71432958943046,42.62297849231846
1556367318312,,,45.3955078125,,,,,,,
1556367318327,,,,,0.36871832609176636,,0.2777358889579773,,,
1556367318328,,,,,,-7.556331157684326,,,36.48998169737507,42.55810429058265
1556367318346,,30.798079847529714,45.3955078125,,,,,,,
1556367318348,,,,8.559634877911794,0.541106104850769,-6.76143217086792,0.3735068738460541,,38.2892891662828,42.719914499958094
1556367318358,,,,,,,,1012.838134765625,,
1556367318367,,,,,0.19393625855445862,,0.9194015264511108,,355.08220232588826,
1556367318368,,,,,,-6.421444892883301,,,,42.358807649446355
1556367318386,,30.68098526080935,45.3955078125,,,,,,,
1556367318388,,,,,1.0295381546020508,-6.945791244506836,0.9696813225746155,,29.245650837227743,42.515830522034214
1556367318396,4041.0,,,,,,,,,
1556367318410,,,,,1.5730385780334473,,0.6775797605514526,,,
1556367318411,,,,,,,,,50.04413352033396,42.32207993261908
1556367318412,,,,9.398851089065811,,-8.439818382263184,,,,
1556367318425,,29.18216729843386,,,,,,,,
1556367318432,3979.0,,,,2.233858346939087,-9.955394744873047,0.5842030644416809,,58.37896555317633,41.522297090949536
1556367318450,,,,,2.286532402038574,,0.3974496126174927,,,
1556367318451,,,,,,-11.289005279541016,,,63.10078460943282,41.46902879783207
1556367318460,,,,,,,,1012.83447265625,,
1556367318465,,31.19485377105629,,,,,,,,
1556367318470,,,,,0.7829278707504272,,,,,
1556367318471,,,,,,-12.0024995803833,0.07182824611663818,,68.71500886188653,42.067400850616885
1556367318472,,,,8.494588587937635,,,,,,
1556367318490,,,,,-0.4860377907752991,-12.253898620605469,0.0,,254.17505707543842,42.39198414553426
1556367318496,3979.0,,,,,,,,,
1556367318505,,26.675111895345122,0.0,,,,,,,
1556367318510,,,,,-0.9481328129768372,,,,,
1556367318511,,,,,,-12.26347541809082,-1.1037607192993164,,205.30652888485793,42.911409174517196
1556367318534,,,,4.028301017946216,-1.2546000480651855,,,,,
1556367318535,,,,,,-12.431075096130371,-2.3344178199768066,,193.52032713232722,43.363148150018745
1556367318545,,26.731494759449003,,,,,,,,
1556367318551,,,,,-0.6895511150360107,,,,,
1556367318552,,,,,,-14.028056144714355,-3.7925312519073486,,173.36047373943532,42.92277743934927
1556367318561,,,,,,,,1012.83642578125,,
1556367318571,,,,,0.14605076611042023,,,,,
1556367318572,,,,,,-16.520496368408203,-5.576265811920166,,172.7209494670687,42.53729193952169
1556367318585,,26.47380197598046,,,,,,,,
1556367318586,,,0.0,,,,,,,
1556367318592,,,,7.765154143091224,,,,,,
1556367318593,,,,,0.03351984918117523,,,,,
1556367318594,,,,,,-17.727210998535156,-6.833260536193848,,157.74797269310682,43.04384080839436
1556367318596,3979.0,,,,,,,,,
1556367318613,,,,,-1.0271438360214233,,,,,
1556367318614,,,,,,-16.89160919189453,-6.239480018615723,,171.23550626599598,43.07456760689393
1556367318616,4121.0,,,,,,,,,
1556367318625,,39.518300223509044,,,,,,,,
1556367318634,,,,,-1.9752767086029053,,-5.370358467102051,,,
1556367318635,,,,,,,,,188.18813505108164,42.714477257328085
1556367318638,,,,,,-15.150971412658691,,,,
1556367318656,,,,7.6882968892738,-2.5499026775360107,-14.188472747802734,-4.427014350891113,,207.78632468567946,43.044928585227694
1556367318665,,44.74614955934246,,,,,,1012.846923828125,,
1556367318675,,,48.06640625,,-2.825244188308716,-13.561172485351562,-3.933793544769287,,223.8849849367511,43.61855351111355
1556367318696,,,,,-3.098191499710083,,,,,
1556367318697,4121.0,,,,,,-3.684788942337036,,237.6662849458425,
1556367318699,,,,,,-12.871621131896973,,,245.21472314859545,43.762132426557784
1556367318705,,44.318072788332344,,,,,,,,
1556367318706,,,48.06640625,,,,,,,
1556367318717,,,,,-2.9281980991363525,,,,,
1556367318718,,,,8.852617434929556,,,,,,
1556367318719,,,,,,-12.536422729492188,-3.878725290298462,,242.62830809483006,43.83031592112279
1556367318741,,,,,-2.669616460800171,,-4.23068380355835,,258.4125610780277,43.98069544607929
1556367318742,,,,,,-11.990528106689453,,,,
1556367318747,,33.94530794729767,48.06640625,,,,,,,
1556367318761,,,,,-2.0590763092041016,,-4.4485626220703125,,249.56974055585476,
1556367318762,,,,,,,,,253.80510670923388,
1556367318763,,,,,,-11.054367065429688,,,,44.06259608933381
1556367318768,,,,,,,,1012.85888671875,,
1556367318779,,,,,-1.4940274953842163,,,,,
1556367318780,,,,,,,-4.860377788543701,,249.84720333050825,
1556367318781,,,,,,-10.249890327453613,,,257.3621053044364,44.45485762093973
1556367318782,,,,8.658565941318242,,,,,,
1556367318787,,35.31003855902844,48.06640625,,,,,,,
1556367318797,4121.0,,,,,,,,,
1556367318803,7495.0,,,,-1.2210801839828491,,-5.02079439163208,,260.4188881655839,
1556367318804,,,,,,-9.299363136291504,,,268.07261373439263,44.3699488424815
1556367318805,,,0.0,,,,,,,
1556367318819,,,,,-1.132491946220398,,,,,
1556367318824,,,,,,,-5.018400192260742,,,
1556367318825,,43.59454233885589,,,,,,,270.9236098260368,44.60038589457709
1556367318826,,,,,,-8.772623062133789,,,,
1556367318840,,,,8.470208862323686,-1.1085492372512817,,-5.547534942626953,,285.0561796339528,45.23924486496375
1556367318842,,,,,,-8.384750366210938,,,,
1556367318860,,,,,-1.240234375,-8.209968566894531,-5.645699977874756,,291.9935003210972,44.57353703306145
1556367318866,,39.30066379868276,,,,,,,,
1556367318868,,,,,,,,1012.853271484375,,
1556367318875,,,50.888671875,,,,,,,
1556367318878,,,,,-1.132491946220398,,-5.944984436035156,,301.6464495807253,
1556367318879,,,,,,-7.714353561401367,,,,
1556367318880,,,,,,,,,304.037005544946,
1556367318881,,,,,,,,,,44.47918319276368
1556367318896,7495.0,,,,,,,,,
1556367318900,,,,9.926286236416196,-1.4940274953842163,,,,,
1556367318901,,,,,,-6.854808807373047,-6.464541912078857,,313.4351409372085,44.87318089209109
1556367318905,,36.860518382098,,,,,,,,
1556367318906,,,50.888671875,,,,,,,
1556367318921,,,,,-1.7190892696380615,,,,,
1556367318922,,,,,,,-5.674431324005127,,312.35622376534576,
1556367318923,,,,,,-6.421444892883301,,,,44.92758176962886
1556367318940,,,,,-1.501210331916809,,,,,
1556367318941,,,,,,,-6.047938346862793,,,
1556367318942,,,,,,-7.180429935455322,,,311.706611303575,45.00835757335648
1556367318946,,40.91099073584675,50.888671875,,,,,,,
1556367318963,,,,,-0.6799740195274353,,,,,
1556367318964,,,,,,-9.435836791992188,-7.994483470916748,,311.2278867597434,44.9737097401385
1556367318966,,,,10.057703237279359,,,,,,
1556367318975,,,,,,,,1012.8212890625,,
1556367318983,8173.0,,,,,,,,,
1556367318984,,,,,-0.2537931203842163,-12.366429328918457,-8.815719604492188,,301.49188922999707,45.066269533700556
1556367318985,,36.49369523870048,,,,,,,,
1556367318997,8173.0,,,,,,,,,
1556367319002,,,,,-1.0630580186843872,,,,,
1556367319003,,,,,,-14.188472747802734,-8.533195495605469,,295.8181945204401,44.684652335411045
1556367319023,,,,,-2.111750364303589,,-7.379155158996582,,292.93944737019814,
1556367319024,,,,,,-14.336917877197266,,,291.5021843235307,45.315056082202474
1556367319025,,38.5175438108307,,10.459885035041689,,,,,,
1556367319042,,,,,-3.2777621746063232,,,,,
1556367319043,,,,,,-13.52525806427002,-5.638517379760742,,295.76821119609394,45.60607770631986
1556367319063,,,,,-3.2346651554107666,,-4.278569221496582,,,
1556367319064,,,,,,-12.809370040893555,,,295.3511256944271,44.91656111682013
1556367319066,,40.82375938193007,,,,,,,,
1556367319069,,,3143.84765625,,,,,,,
1556367319072,,,,,,,,1012.795654296875,,
1556367319084,,,,7.293692897648288,-2.6767992973327637,-12.993729591369629,-4.403071403503418,,286.68738590210273,44.78388028566935
1556367319097,8173.0,,,,,,,,,
1556367319103,,,,,-1.5706442594528198,-13.941862106323242,-5.090228080749512,,269.22885547784904,44.48557827074916
1556367319106,,43.0521113543781,,,,,,,,
1556367319107,,,3143.84765625,,,,,,,
1556367319123,,,,,-1.192348837852478,,,,,
1556367319124,,,,,,-14.720001220703125,-5.693585395812988,,256.86193055151637,44.24250319236932
1556367319143,,,,6.831100409179546,,,,,,
1556367319144,,,,,-0.3423812985420227,,,,,
1556367319145,,,,,,-15.229982376098633,-5.185999393463135,,243.73087821178854,44.42204726481011
1556367319146,,46.38111066987993,3143.84765625,,,,,,,
1556367319162,6696.0,,,,,,,,,
1556367319163,,,,,-0.112530916929245,-15.320964813232422,-4.084632873535156,,218.45620032026318,45.06255383636187
1556367319172,,,,,,,,1012.78271484375,,
1556367319181,,,,,0.07901106774806976,,,,,
1556367319182,,,,,,-14.396774291992188,-4.333637237548828,,204.4394636904815,44.48569954545812
1556367319185,,46.096564323471235,,,,,,,,
1556367319196,6696.0,,,,,,,,,
1556367319202,,,,,0.2609759569168091,-14.035239219665527,-4.127729892730713,,193.4234887102748,43.900569299034814
1556367319204,,,,5.021230067279312,,,,,,
1556367319224,,,,,0.11492519080638885,,-3.0814316272735596,,,
1556367319225,,,,,,-14.370437622070312,,,188.28277415222135,44.6119646488903
1556367319227,,43.084322446436296,,,,,,,,
1556367319237,,,249.8193359375,,,,,,,
1556367319238,,,249.8193359375,,,,,,,
1556367319243,,,,,0.112530916929245,,,,,
1556367319244,,,,,,-14.351283073425293,-2.327235221862793,,180.39249864188764,44.59469251352507
1556367319263,,,,7.001910085293105,0.30886146426200867,,,,,
1556367319264,,,,,,-13.817359924316406,-1.58022141456604,,168.16407947926797,43.5666097666962
1556367319275,,,,,,,,1012.780029296875,,
1556367319277,,35.36205032328978,249.8193359375,,,,,,,
1556367319284,,,,,0.14605076611042023,-12.874015808105469,-1.393467903137207,,173.04233718827447,43.143837191404536
1556367319297,6696.0,,,,,,,,,
1556367319304,,,,,-0.4597007632255554,,,,,
1556367319305,,38.887395292928254,,,,-11.379987716674805,-0.6392713785171509,,215.1628333666448,43.31804757877821
1556367319306,,,249.8193359375,,,,,,,
1556367319326,,,,,-0.8068706393241882,,,,,
1556367319327,,,,7.288674690748558,,,-0.0071828244253993034,,269.7837946875343,
1556367319328,,,,,,-10.37199878692627,,,,43.19070690761159
1556367319345,,43.027520604705856,249.8193359375,,,,,,,
1556367319347,4690.0,,,,-0.7518022656440735,-10.324112892150879,0.40463244915008545,,298.9427396883433,42.65683289583797
1556367319352,,,300.13671875,,,,,,,
1556367319365,,,,,-0.6727912425994873,,,,,
1556367319366,,,,,,-10.348055839538574,0.6153286099433899,,312.82915972385575,42.31233808303067
1556367319374,,,,,,,,1012.7900390625,,
1556367319385,,35.211285174449195,300.13671875,,,,,,,
1556367319386,,,,8.827039479721527,-0.8092648983001709,-9.7016019821167,1.0486923456192017,,324.0421515106715,42.034998277705235
1556367319398,4690.0,,,,,,,,,
1556367319405,,,,,-0.7613793611526489,-9.16049575805664,1.0319324731826782,,326.3519507332405,42.54075962756394
1556367319425,,37.754956914637255,300.13671875,,,,,,,
1556367319426,,,,,-0.3304099142551422,,0.9265843629837036,,,
1556367319427,,,,,,-8.626572608947754,,,343.06863040607703,42.84356916837036
1556367319428,,,0.0,,,,,,,
1556367319447,,,,,-0.1771763414144516,,,,,
1556367319448,,,,8.529080181369757,,-8.23151683807373,0.8403904438018799,,350.1640554583553,42.53297575000443
1556367319465,,29.496961256380775,,,,,,,,
1556367319468,,,,,0.42378664016723633,,,,,
1556367319469,,,,,,-8.277008056640625,1.209108829498291,,19.555536810778335,43.112786055087334
1556367319476,,,,,,,,1012.794921875,,
1556367319486,,,,,1.2210801839828491,-8.885153770446777,1.2019259929656982,,43.99961076526398,43.29934348911234
1556367319497,4690.0,,,,,,,,,
1556367319505,,34.20841254005215,,,,,,,,
1556367319508,,,,9.636600785911558,1.7095122337341309,-9.464568138122559,1.022355318069458,,56.20315756664996,42.85936520283052
1556367319510,,,43.06640625,,,,,,,
1556367319530,4627.0,,,,2.0566821098327637,-10.549175262451172,1.2976969480514526,,53.36988581590197,42.52268825866344
1556367319545,,27.129511426661356,,,,,,,,
1556367319546,,,43.06640625,,,,,,,
1556367319548,,,,,1.6233183145523071,,,,,
1556367319549,,,,,,-11.796591758728027,1.5850099325180054,,39.55426752132581,42.22669974052276
1556367319571,,,,,0.20590762794017792,,,,,
1556367319572,,,,9.148319911445403,,-11.420690536499023,1.8459858894348145,,359.0045824243492,42.419659126879395
1556367319581,,,,,,,,1012.807373046875,,
1556367319586,,29.018344069407696,43.06640625,,,,,,,
1556367319590,,,,,-0.7589851021766663,,,,,
1556367319591,,,,,,-10.728745460510254,1.1564347743988037,,317.850748952595,42.39860678200067
1556367319598,4627.0,,,,,,,,,
1556367319610,,,,,-1.1372805833816528,,,,,
1556367319611,,,,,,-9.914691925048828,-0.05267404764890671,,257.8526221698701,41.83695451444326
1556367319625,,26.410585217028597,,,,,,,,
1556367319632,,,,3.3441348701091558,-1.1205205917358398,,-1.2785427570343018,,210.8183002997614,
1556367319633,,,,,,-10.771842002868652,,,208.77582785111747,42.10739142799071
1556367319651,,,,,0.4549122154712677,-13.357659339904785,-3.2657909393310547,,157.5578065662353,42.804059216962365
1556367319666,,30.29783723859053,,,,,,,,
1556367319670,,,,,1.3479766845703125,,,,,
1556367319671,,,,,,-15.780665397644043,-5.487678050994873,,146.92204089636655,42.98931918939489
1556367319681,,,,,,,,1012.822998046875,,
1556367319691,,,,9.310239376674295,1.132491946220398,,-6.850020408630371,,,
1556367319692,,,,,,-17.1645565032959,,,147.49100931460697,43.25704384976918
1556367319698,4627.0,,,,,,,,,
1556367319705,,30.878304938596006,,,,,,,,
1556367319706,,,0.0,,,,,,,
1556367319712,4300.0,,,,0.4788549542427063,,-8.286584854125977,,150.13972935398124,
1556367319713,,,,,,-16.50613021850586,,,,42.96875660972962
1556367319734,,,,,-0.3016786277294159,-15.273078918457031,-7.288172721862793,,157.17467393493263,42.603971489188794
1556367319745,,30.194290503903787,,,,,,,,
1556367319753,,,,,-1.0678465366363525,,,,,
1556367319754,,,,8.298233984159484,,-14.557190895080566,-6.114977836608887,,168.40499391167265,42.9026835223567
1556367319772,,,,,-1.8842942714691162,-14.33212947845459,-5.389512538909912,,186.37324450558253,43.174741416885745
1556367319782,,,,,,,,1012.848388671875,,
1556367319785,,39.919891484199475,0.0,,,,,,,
1556367319794,,,,,-2.8372156620025635,,,,,
1556367319795,,,,,,-13.793416976928711,-4.053507328033447,,217.37555511054052,43.09762784417084
1556367319825,,36.403609688242916,,,,,,,,
1556367319846,,,,8.934950244767165,-3.6440863609313965,-12.756695747375488,-3.5770466327667236,,244.3415790858577,43.301795708314884
1556367319847,4300.0,,,,,,,,,
1556367319856,,,,,-1.9178141355514526,,-4.908263206481934,,,
1556367319857,,,,,,,,,267.72734084165927,
1556367319858,,,,,,-11.4039306640625,,,,43.16919678959455
1556367319865,,36.45883062483211,,,,,,,,
1556367319868,,,0.0,,,,,,,
1556367319895,,,,,-0.991229772567749,,,,,
1556367319896,,,,9.691010263725895,,-10.92268180847168,-5.533169269561768,1012.861572265625,242.53361435217698,43.96350147657016
1556367319897,6519.0,,,,-0.6344828009605408,,-6.26102876663208,,260.3955562393792,
1556367319898,,,,,,-10.060742378234863,,,,44.25373026827768
1556367319907,,32.23270433299644,,,,,,,,
1556367319919,,,,,-0.8882759809494019,,-6.732700824737549,,284.8415682600418,
1556367319923,,,,,,-8.827691078186035,,,,44.72519909142615
1556367319939,,,,9.75793916300898,-0.8308133482933044,,-5.839636325836182,,,
1556367319940,,,,,,-8.13095760345459,,,282.14631414185226,44.425209673694255
1556367319945,,33.06495537993292,,,,,,,,
1556367319950,6519.0,,,,,,,,,
1556367319957,,,,,-1.0127782821655273,,,,,
1556367319958,,,,,,-7.755055904388428,-5.858790397644043,,290.68698758571134,44.44866140392979
1556367319981,,,,,-1.1995316743850708,-7.383943557739258,-6.165257453918457,,302.07476391338764,44.749462889805585
1556367319985,,30.361812982418147,,,,,,,,
1556367319989,,,,,,,,1012.864990234375,,
1556367319993,,,46.03515625,,,,,,,
1556367319994,,,46.03515625,,,,,,,
1556367319999,,,,,-0.8044763207435608,,,,,
1556367320000,,,,10.300633116587498,,-7.257047176361084,-6.70157527923584,,310.7187064024027,44.54421079809363
1556367320018,,,,,-0.5865973234176636,-6.936213970184326,-6.75185489654541,,317.36453510633845,44.40466234472017
1556367320025,,38.196446042149546,46.03515625,,,,,,,
1556367320038,,,,,-0.9984126091003418,,,,,
1556367320039,,,,,,,-6.905088424682617,,316.39816920671376,44.711634958739715
1556367320040,,,,,,-7.331269264221191,,,,
1556367320051,6519.0,,,,,,,,,
1556367320061,,,,9.901385632272124,,,,,317.81964768620935,44.88677767926606
1556367320063,,,,,-0.5770202279090881,-10.21397590637207,-7.879558563232422,,309.22702382352315,
1556367320065,,34.478575512288046,46.03515625,,,,,,,
1556367320082,6787.0,,,,-0.18675343692302704,-13.419910430908203,-9.167677879333496,,301.8312061977742,44.70213315105898
1556367320089,,,,,,,,1012.861328125,,
1556367320100,,,,,-0.8475732803344727,-14.494939804077148,-8.75107479095459,,294.7905993900008,45.00935938140467
1556367320105,,40.59913492790482,,,,,,,,
1556367320120,,,,,-2.0040080547332764,,,,,
1556367320121,,,,10.34908505141238,,-13.565960884094238,-7.125361919403076,,291.6680896184703,44.59711460636644
1556367320141,,,,,-3.3567733764648438,,-6.014418125152588,,,
1556367320142,,,,,,-12.828524589538574,,,295.9314936983923,43.99014727034293
1556367320145,,38.850618957418256,,,,,,,,
1556367320151,6787.0,,40.05859375,,,,,,,
1556367320158,,,,,-3.2394537925720215,,,,,
1556367320159,,,,,,-13.087105751037598,-5.075862407684326,,290.54462595284076,44.28203159933721
1556367320180,,,,8.761456645934725,-3.04072904586792,-13.774263381958008,-5.267404556274414,,286.5826176304239,44.149031853054446
1556367320185,,41.321642861403106,,,,,,,,
1556367320186,,,40.05859375,,,,,,,
1556367320190,,,,,,,,1012.841796875,,
1556367320199,,,,,-2.5642683506011963,,,,,
1556367320200,,,,,,-14.729578971862793,-5.3775410652160645,,277.2213379389229,43.430757031150534
1556367320220,,,,,-2.1141445636749268,,,,,
1556367320221,,,,,,-16.168537139892578,-5.0998053550720215,,260.75474905764094,43.36443610517129
1556367320229,,37.72140180435442,40.05859375,,,,,,,
1556367320245,,,,8.843869912780246,-2.1165390014648438,,-4.9609375,,252.39202253222822,
1556367320246,,,,,,-16.70724868774414,,,,43.65778196043585
1556367320251,6787.0,,,,,,,,,
1556367320262,5436.0,,,,-1.240234375,-17.013717651367188,-4.237866401672363,,235.491293166922,43.2130399167972
1556367320265,,36.92143310045152,40.05859375,,,,,,,
1556367320281,,,,,-0.9529213905334473,,-3.4333901405334473,,217.90505869575657,43.20970503321704
1556367320282,,,,,,-16.5444393157959,,,,
1556367320291,,,,,,,,1012.8271484375,,
1556367320302,,,,7.040630407284736,-1.0462981462478638,-15.735174179077148,-2.1931557655334473,,219.90645438673204,43.82177410876624
1556367320305,,37.440324667159,,,,,,,,
1556367320321,,,,,-0.6464542150497437,,-2.1620302200317383,,,
1556367320322,,,,,,-15.258713722229004,,,202.80845549781748,43.67159089114565
1556367320343,,,,,-0.2968900799751282,,,,,
1556367320344,,,,,,-14.906754493713379,-1.9680938720703125,,187.4069116741939,42.66349995383834
1556367320345,,39.12258397192487,,,,,,,,
1556367320348,,,0.0,,,,,,,
1556367320351,5436.0,,,,,,,,,
1556367320365,,,,,-0.0885881707072258,,,,,
1556367320366,,,,7.252953026609312,,-14.47339153289795,-1.9369683265686035,,176.54723510048817,42.36097624042848
1556367320385,,,,,0.011971374042332172,-14.02326774597168,-2.0662591457366943,,169.78504729385207,42.94114085899731
1556367320386,,33.41135169451478,,,,,,,,
1556367320395,,,,,,,,1012.79150390625,,
1556367320405,,,,,-0.23942747712135315,-12.85486125946045,-1.3216396570205688,,178.84409111458007,42.98178134789363
1556367320425,,39.55663784132319,,,,,,,,
1556367320427,,,,7.769844980939583,-0.6823683381080627,-11.743917465209961,-0.6847625970840454,,213.0808551038415,42.82394526541308
1556367320433,,,44.74609375,,,,,,,
1556367320434,,,44.74609375,,,,,,,
1556367320448,4144.0,,,,-0.8691217303276062,,-0.3663240373134613,,234.96945305395468,42.10225992830502
1556367320449,,,,,,-11.30337142944336,,,,
1556367320452,4144.0,,,,,,,,,
1556367320466,,39.408663018886394,44.74609375,,-0.6608198285102844,,,,,
1556367320467,,,,,,-11.360834121704102,-0.36871832609176636,,228.23219543778907,41.76008416096115
1556367320488,,,,,-0.13886794447898865,,,,,
1556367320489,,,,9.21806679473136,,-11.272245407104492,-0.0885881707072258,,223.68053005413594,42.386040308053204
1556367320497,,,,,,,,1012.788330078125,,
1556367320505,,34.281181661126595,44.74609375,,,,,,,
1556367320509,,,,,-0.1891477108001709,,0.3663240373134613,,318.42685150342345,
1556367320510,,,,,,-10.637763023376465,,,317.7230790566291,42.50244897632363
1556367320528,,,,,-0.15802213549613953,-9.85244083404541,0.6632141470909119,,331.66313315259913,41.853814879429486
1556367320545,,34.171643774947825,44.74609375,,,,,,,
1556367320549,,,,,0.26337021589279175,,,,,
1556367320550,,,,10.15651216608747,,-9.057541847229004,1.4030450582504272,,354.8113520281251,41.08790882388369
1556367320552,4144.0,,,,,,,,,
1556367320569,,,,,0.7230709791183472,,1.8148603439331055,,,
1556367320570,,,,,,-8.885153770446777,,,5.956826114334717,41.37425296908533
1556367320585,,38.29333060368621,,,,,,,,
1556367320590,,,,,1.582615613937378,,,,,
1556367320591,,,,,,-9.596253395080566,2.1213274002075195,,21.75662503497017,42.09802594960542
1556367320601,,,,,,,,1012.798828125,,
1556367320611,,,,12.127015880263217,2.6432793140411377,,,,,
1556367320612,,,,,,-9.620196342468262,1.764580488204956,,43.03695707345321,41.868953035824966
1556367320625,,29.417102615668313,,,,,,,,
1556367320632,4250.0,,,,3.189173936843872,,1.2905141115188599,,54.594128922735024,41.739650746553636
1556367320633,,,60.0830078125,,,-9.416683197021484,,,,
1556367320651,4250.0,,,,3.038334846496582,,,,,
1556367320652,,,,,,-9.75427532196045,1.4150164127349854,,49.88611026369654,42.217535797770815
1556367320666,,26.22775979385889,60.0830078125,,,,,,,
1556367320675,,,,10.331496618965488,1.7095122337341309,-9.536396980285645,1.3958622217178345,,32.229784391268424,42.81549655382683
1556367320692,,,,,0.5482889413833618,,,,,
1556367320693,,,,,,-9.287391662597656,1.1372805833816528,,4.293091070262619,42.4807181112294
1556367320704,,,,,,,,1012.809326171875,,
1556367320705,,28.946124048720915,,,,,,,,
1556367320706,,,60.0830078125,,,,,,,
1556367320715,,,,,-0.1652049571275711,,,,,
1556367320717,,,,,,,0.6919454336166382,,323.9813764874367,
1556367320718,,,,,,,,,,41.95252797639537
1556367320719,,,,,,-9.596253395080566,,,,
1556367320735,,,,5.464251777265718,-0.40942099690437317,,-0.7254652380943298,,185.53914180414063,
1556367320736,,,,,,-10.688042640686035,,,183.8236851525785,42.0863525629481
1556367320745,,29.23397351599664,,,,,,,,
1556367320752,4250.0,,,,,,,,,
1556367320753,,,,,-0.3543526828289032,,,,,
1556367320754,,,,,,-12.675291061401367,-2.5235655307769775,,162.18892071031408,42.3306269632987
1556367320773,,,,,0.1412622183561325,,-4.194769382476807,,149.92110865902745,
1556367320774,,,,,,-15.950658798217773,,,,42.47847244522703
1556367320785,,25.815171287389624,,,,,,,,
1556367320796,,,,9.427688045320698,-0.5889915823936462,-18.47661781311035,-4.927417755126953,,157.16609521733508,43.218453883098746
1556367320803,,,,,,,,1012.831787109375,,
1556367320814,4411.0,,,,,,,,,
1556367320815,,,,,-1.3551595211029053,-20.868499755859375,-6.0575151443481445,,161.44869212882477,43.47665386498576
1556367320825,,31.691360614234224,,,,,,,,
1556367320826,,,0.0,,,,,,,
1556367320835,,,,,-1.3791022300720215,,,,,
1556367320836,,,,,,-21.75438117980957,-7.970541000366211,,162.1470106695669,42.639275438690674
1556367320852,4411.0,,,,,,,,,
1556367320855,,,,15.088702572206135,,,,,,
1556367320859,,,,,-1.8890827894210815,,-9.459779739379883,,158.16496940231443,
1556367320860,,,,,,-21.89324951171875,,,158.4878870858943,42.891103010485246
1556367320866,,47.00925705132335,,,,,,,,
1556367320878,,,,,-2.166818618774414,,,,,
1556367320879,,,,,,,-9.641744613647461,,159.72034008010974,43.834917052103386
1556367320880,,,,,,-20.9044132232666,,,,
1556367320896,,,,,-2.913832426071167,-19.66657257080078,-8.743891716003418,,173.87023807795006,43.736130858328316
1556367320906,,39.488326315181126,,,,,,,,
1556367320907,,,,,,,,1012.843994140625,,
1556367320917,,,,17.66749417268326,,,,,,
1556367320919,,,,,-3.8859081268310547,,,,,
1556367320920,,,,,,,-7.865192890167236,,214.08274823243403,
1556367320921,,,48.8330078125,,,-17.99536895751953,,,231.6900743277564,44.012809845418545
1556367320922,,,48.8330078125,,,,,,,
1556367320935,,,,,,,,,258.66961524744113,44.1310498176792
1556367320936,,,,,-4.7574238777160645,,,,,
1556367320939,,,,,,-14.803801536560059,-6.6465067863464355,,275.3779381838281,
1556367320954,,35.53528782478616,48.8330078125,,,,,,,
1556367320957,4411.0,,,,-4.611373424530029,-11.42308521270752,-5.310501575469971,,289.208429215322,43.524487722240494
1556367320978,,,,,-3.349590539932251,,,,,
1556367320979,,,,13.81232600728224,,-10.52283763885498,-5.748653888702393,,292.96324374926644,43.341228508993886
1556367320985,,37.33211690926761,48.8330078125,,,,,,,
1556367320997,,,46.240234375,,,,,,,
1556367321003,5574.0,,,,-2.169213056564331,-10.209187507629395,-6.601015567779541,,298.31819402082647,43.739875258018024
1556367321008,,,,,,,,1012.86767578125,,
1556367321019,,,,,-1.161223292350769,,,,,
1556367321020,,,,,,-10.218765258789062,-7.424646377563477,,305.3406256952184,43.52920158521598
1556367321026,,36.64778269370611,46.240234375,,,,,,,
1556367321039,,,,14.86676258917228,-0.5554717779159546,,-8.128562927246094,,314.2453379765554,
1556367321040,,,,,,-9.177255630493164,,,316.88651407199137,44.11583168161558
1556367321058,5574.0,,,,,,,,,
1556367321060,,,,,-0.19633053243160248,,-8.537983894348145,,,
1556367321061,,,,,,-8.35123062133789,,,321.81473119968194,44.57761831778213
1556367321065,,35.95196368309812,46.240234375,,,,,,,
1556367321079,,,,,-0.17957061529159546,,-8.722343444824219,,,
1556367321080,,,,,,-7.640130996704102,,,327.31609340629035,44.14426194424635
1556367321101,,,,14.011372987614271,-0.5506832003593445,,,,,
1556367321102,,,,,,-6.526793003082275,-8.212362289428711,,328.57616085532015,44.382926945826476
1556367321105,,32.551530823226514,46.240234375,,,,,,,
1556367321110,,,,,,,,1012.892333984375,,
1556367321113,,,47.87109375,,,,,,,
1556367321120,,,,,-0.7733507752418518,,-7.5802741050720215,,,
1556367321121,,,,,,-6.7446722984313965,,,325.5370715992176,44.911032073062806
1556367321139,,,,,-0.7015225291252136,,-7.817307472229004,,,
1556367321140,,,,,,-8.269824981689453,,,323.1215103124455,45.37281479985835
1556367321145,,34.84899665399262,47.87109375,,,,,,,
1556367321158,5574.0,,,,,,,,,
1556367321159,,,,,-0.45251792669296265,,,,,
1556367321160,,,,13.795996839974766,,-10.508472442626953,-8.763046264648438,,321.0065763868969,45.12243117331496
1556367321180,7036.0,,,,,,,,,
1556367321181,,,,,-0.4309694766998291,-13.40315055847168,-9.850046157836914,,317.90814644728516,44.793485421499135
1556367321185,,35.97806085516303,47.87109375,,,,,,,
1556367321189,,,49.9072265625,,,,,,,
1556367321199,,,,,-1.6089526414871216,-14.45423698425293,-9.115004539489746,,312.975786809863,
1556367321201,,,,,,,,,310.54265144635644,44.86014223594073
1556367321210,,,,,,,,1012.89501953125,,
1556367321219,,,,14.724921161848584,,,,,,
1556367321220,,,,,-2.9832663536071777,-14.17410659790039,-6.435810565948486,,308.7096540693676,44.75054717638726
1556367321225,,34.594473660822125,49.9072265625,,,,,,,
1556367321241,,,,,-3.7661943435668945,-14.286637306213379,-4.33124303817749,,305.0333696354054,44.70486990510914
1556367321258,7036.0,,,,,,,,,
1556367321260,,,,,-3.7374629974365234,,,,,
1556367321261,,,,,,-14.576345443725586,-3.4621214866638184,,311.1685529064235,44.794490749999824
1556367321268,,35.8269316178048,49.9072265625,,,,,,,
1556367321274,,,40.78125,,,,,,,
1556367321281,,,,,-3.778165578842163,,-3.5219781398773193,,,
1556367321282,,,,,,-15.469409942626953,,,306.1893347562004,45.06187544250683
1556367321285,,,,12.065471698189205,,,,,,
1556367321304,,,,,-2.9976320266723633,-17.13103675842285,-3.720703125,,291.5936473867063,44.66007345669322
1556367321305,,39.33294073598699,40.78125,,,,,,,
1556367321310,,,,,,,,1012.892578125,,
1556367321321,,,,,-2.5499026775360107,,,,,
1556367321322,,,,,,-18.03607177734375,-4.022381782531738,,278.473946821379,44.211407865875465
1556367321342,,,,12.286630475933931,-1.8531687259674072,,-4.434196949005127,,,
1556367321343,,,,,,-19.23560333251953,,,258.32609088313535,44.68130916400415
1556367321345,,37.56723670264237,40.78125,,,,,,,
1556367321358,7036.0,,,,,,,,,
1556367321362,5602.0,,,,-1.2785427570343018,,-4.209135055541992,,239.69091694037434,45.119680180633615
1556367321380,,,,,-0.8356019258499146,,-3.5554981231689453,,,
1556367321381,,,,,,-18.85491371154785,,,220.9686444253174,45.92336521856874
1556367321385,,31.673221917018953,40.78125,,,,,,,
1556367321389,,,40.5078125,,,,,,,
1556367321401,,,,,-0.4309694766998291,,-2.672010660171509,,,
1556367321402,,,,,,-18.220430374145508,,,202.15206065820087,46.44561805232562
1556367321404,,,,9.426151146647985,,,,,,
1556367321411,,,,,,,,1012.895751953125,,
1556367321420,,,,,-0.13886794447898865,,-2.1189332008361816,,,
1556367321421,,,,,,-17.952272415161133,,,185.27398020018234,46.382210898155584
1556367321425,,37.042128891819075,40.5078125,,,,,,,
1556367321444,,,,,0.2370332032442093,-17.487783432006836,-1.6544438600540161,,165.1802157176995,46.17482248741611
1556367321458,5602.0,,,,,,,,,
1556367321464,,,,8.850837159297992,0.2657645046710968,-16.400781631469727,-1.3910737037658691,,156.43335252317613,45.99245591854242
1556367321465,,34.0202906477638,40.5078125,,,,,,,
1556367321471,,,42.060546875,,,,,,,
1556367321483,,,,,-0.031125571578741074,-14.889994621276855,-0.8715160489082336,,165.5136518926012,45.61495892192644
1556367321504,,,,,-0.3663240373134613,-13.338504791259766,-0.38068968057632446,,205.31962918768602,45.50836838781665
1556367321505,,27.89806868295826,42.060546875,,,,,,,
1556367321514,,,,,,,,1012.898681640625,,
1556367321524,,,,8.095189736058876,-0.5435003638267517,,,,,
1556367321525,,,,,,-12.304178237915039,-0.1532335877418518,,234.37496704897512,45.45173054034966
1556367321546,4672.0,35.051905992033205,42.060546875,,,,,,,
1556367321547,,,,,-0.45730647444725037,-12.239532470703125,-0.0071828244253993034,,248.38684741425698,45.70858206087572
1556367321559,4672.0,,,,,,,,,
1556367321567,,,,,-0.08379961550235748,,0.19872480630874634,,315.9982889515662,
1556367321568,,,,,,-12.469383239746094,,,316.21642470308893,44.887178098003986
1556367321585,,31.3803994708308,,,,,,,,
1556367321587,,,,10.054696605473733,0.5171633362770081,-11.88278579711914,0.4142095446586609,,29.94892809530728,44.61943072752253
1556367321607,,,,,0.6009629964828491,,0.7398309111595154,,18.516854575768832,
1556367321608,,,,,,-10.032011032104492,,,,45.27368574739664
1556367321617,,,,,,,,1012.884765625,,
1556367321626,,,,,0.7685621976852417,,,,,
1556367321627,,,,,,-8.387145042419434,1.5562785863876343,,6.465448957484455,44.83272966837332
1556367321628,,29.657561608783173,,,,,,,,
1556367321648,,,,10.756677727005503,1.0032011270523071,-7.436617374420166,2.4996228218078613,,3.0145430503294506,44.877792738417476
1556367321659,4672.0,,,,,,,,,
1556367321665,,28.156025933525317,,,,,,,,
1556367321667,,,,,1.4700847864151,,2.3392064571380615,,15.519697558528264,45.1139365349643
1556367321668,,,,,,-7.245075702667236,,,,
1556367321672,,,72.1605224609375,,,,,,,
1556367321688,,,,,2.5810282230377197,,,,,
1556367321689,,,,,,-7.719141960144043,1.783734679222107,,41.63192568947909,44.82164539852033
1556367321705,,27.601090654330612,72.1605224609375,,,,,,,
1556367321710,,,,11.339344524836067,3.4501500129699707,-8.485309600830078,1.1875603199005127,,57.88166630989684,44.08219769117347
1556367321720,,,,,,,,1012.89013671875,,
1556367321731,5470.0,,,,3.256213665008545,-9.179649353027344,0.9505270719528198,,59.60098201833995,43.33520581598947
1556367321745,,27.29059591320203,72.1605224609375,,,,,,,
1556367321750,,,,,2.176395893096924,,,,,
1556367321751,,,,,,,0.8882759809494019,,,
1556367321752,,,,,,-9.318517684936523,,,52.5814258535886,43.00191853085506
1556367321759,5470.0,,,,,,,,,
1556367321772,,,,,0.821236252784729,-9.390345573425293,0.5339232683181763,,39.581198957223194,43.399788464395456
1556367321774,,,,7.978771176675397,,,,,,
1556367321785,,25.667320289862193,,,,,,,,
1556367321791,,,,,0.011971374042332172,,,,,
1556367321792,,,,,,-9.957788467407227,-0.23942747712135315,,158.44956972465053,43.89622082662131
1556367321813,,,,,-0.6440598964691162,-11.265063285827637,-1.331216812133789,,186.78439457286072,44.12248363231957
1556367321822,,,,,,,,1012.9130859375,,
1556367321825,,23.422570246619895,0.0,,,,,,,
1556367321832,,,,,-1.051086664199829,,,,,
1556367321833,,,,5.1395143741124985,,-13.575538635253906,-2.475680112838745,,181.9818973221279,44.515391174912736
1556367321852,,,,,-1.6496553421020508,,,,180.53068702917528,44.45307697403766
1556367321853,,,,,,-16.12544059753418,-3.589017868041992,,182.31344836481867,
1556367321860,5470.0,,,,,,,,,
1556367321865,,22.132511481611132,,,,,,,,
1556367321873,,,,,-2.597788095474243,,-5.181210517883301,,,
1556367321874,,,,,,-18.239585876464844,,,184.4819514640277,44.89110629391969
1556367321895,,,,11.622136245257165,-3.3256475925445557,,,,,
1556367321896,,,,,,-19.700092315673828,-6.4310221672058105,,183.9005247807412,45.47307259132592
1556367321905,,19.349390950392383,,,,,,,,
1556367321916,4279.0,,,,-3.744645833969116,,-5.813299179077148,,,
1556367321917,,,,,,-20.293872833251953,,,189.31747950958663,44.650240122116344
1556367321924,,,,,,,,1012.918701171875,,
1556367321936,,,,,-4.204346656799316,,,,,
1556367321938,,,,,,-19.89163589477539,-6.64171838760376,,190.89346369829696,44.91692302104619
1556367321945,,42.7758109867338,,,,,,,,
1556367321946,,,0.0,,,,,,,
1556367321957,,,,14.750386895746795,-3.5770466327667236,,,,,
1556367321958,,,,,,-20.07360076904297,-7.043956279754639,,186.782400157623,45.76269691866302
1556367321961,4279.0,,,,,,,,,
1556367321976,,,,,-3.620143413543701,,-7.582668304443359,,189.33291573711085,
1556367321977,,,,,,-19.733612060546875,,,196.67941256686322,46.16983272063633
1556367321985,,49.393351984994894,,,,,,,,
1556367321998,,,,,-3.7614057064056396,,,,,
1556367321999,,,,,,-18.75196075439453,-8.107014656066895,,197.13239071261842,47.08902959182998
1556367322017,,,,,-4.39109992980957,,,,,
1556367322018,,,,,,-16.709644317626953,-8.030397415161133,,222.57379352178373,47.408695430617115
1556367322020,,,,16.879751935103343,,,,,,
1556367322025,,33.48964240956628,,,,,,,,
1556367322026,,,,,,,,1012.93798828125,,
1556367322032,,,613.6962890625,,,,,,,
1556367322038,,,,,-4.6640472412109375,,,,,
1556367322039,,,,,,-14.224386215209961,-7.424646377563477,,255.781380964442,46.87939176389469
1556367322058,,,,,-4.7310872077941895,-12.07432746887207,-6.584255695343018,,283.18134051810847,46.6528839548525
1556367322061,4279.0,,,,,,,,,
1556367322065,,32.50594381083901,613.6962890625,,,,,,,
1556367322081,,,,,-4.494053840637207,,,,,
1556367322082,,,,15.437620587206153,,,,,,
1556367322083,,,,,,,-5.882733345031738,,296.759121380501,
1556367322084,,,,,,-10.477346420288086,,,,47.26480701819962
1556367322100,5778.0,,,,,,,,,
1556367322101,,,,,-3.869148015975952,-9.78300666809082,-6.055120944976807,,301.1741829807539,47.76218529805563
1556367322105,,25.406096393922056,613.6962890625,,,,,,,
1556367322120,,,,,-3.1149516105651855,-9.325700759887695,-6.727912425994873,,305.4169052478691,47.46743104864293
1556367322130,,,,,,,,1012.9462890625,,
1556367322141,,,,,-2.5259599685668945,,,,310.30973175037525,47.04692383860803
1556367322142,,,,15.382682555634497,,-8.741497039794922,-7.295355319976807,,,
1556367322145,,29.67327190250642,,,,,,,,
1556367322158,,,,,-2.2123098373413086,,,,,
1556367322159,,,,,,-8.097437858581543,-7.417463302612305,,314.4815908048515,47.424866256887256
1556367322161,5778.0,,,,,,,,,
1556367322180,,,,,-2.049499273300171,,,,,
1556367322181,,,,,,-7.556331157684326,-7.285778045654297,,316.9798656824725,47.433633011833436
1556367322185,,27.995952708399926,0.0,,,,,,,
1556367322199,,,,14.06816943007445,,,,,,
1556367322200,,,,,-1.8986599445343018,-7.714353561401367,-7.156487464904785,,319.5320580734016,47.48563151834249
1556367322219,,,,,-1.7286664247512817,,,,,
1556367322220,,,,,,-9.000079154968262,-7.4868974685668945,,315.08879803716025,47.866651388507705
1556367322227,,27.25452775506881,,,,,,,,
1556367322231,,,,,,,,1012.953857421875,,
1556367322241,,,,,-1.611346960067749,-10.893950462341309,-8.399115562438965,,311.29422155696255,47.7041116435651
1556367322261,5778.0,,,15.354736869641808,-2.205127000808716,-12.557971000671387,-8.786988258361816,,308.40159204723255,47.38989629437511
1556367322265,,30.123400012774727,,,,,,,,
1556367322282,6958.0,,,,-3.2610023021698,-12.821341514587402,-7.850827217102051,,306.5867732187197,47.44683570940693
1556367322302,,,,,-4.113364219665527,,-6.014418125152588,,,
1556367322303,,,,,,-12.555577278137207,,,305.687295361637,47.73741741576626
1556367322306,,33.12034436905162,0.0,,,,,,,
1556367322322,,,,13.474052075960785,-4.599401950836182,,,,,
1556367322323,,,,,,-12.498114585876465,-5.07107400894165,,308.7243048251373,47.68116458997083
1556367322332,,,,,,,,1012.951171875,,
1556367322340,,,,,-3.933793544769287,,,,,
1556367322341,,,,,,-13.07513427734375,-4.6999616622924805,,304.53318805229617,47.544878510101235
1556367322345,,30.48588000700144,,,,,,,,
1556367322361,6958.0,,,,-3.1795969009399414,-13.841302871704102,-4.685595989227295,,294.39377905960146,47.27900926800923
1556367322382,,,,10.981251083834252,,,,,,
1556367322384,,,,,-2.815667152404785,,,,,
1556367322385,,38.73665439660509,,,,-14.837321281433105,-4.927417755126953,,285.77741345936033,46.69561368868014
1556367322389,,,42.1142578125,,,,,,,
1556367322403,,,,,-2.348783493041992,-15.960235595703125,-4.90108060836792,,273.3464623397479,46.63713771039518
1556367322422,,,,,-2.0016138553619385,-17.07836151123047,-4.465322494506836,,258.8823961306545,47.30565267899863
1556367322425,,36.54962356167734,42.1142578125,,,,,,,
1556367322432,,,,,,,,1012.94189453125,,
1556367322443,,,,,-1.8196488618850708,-17.679325103759766,-3.531555414199829,,250.30815913721403,47.437427076104264
1556367322444,,,,10.626084216280445,,,,,,
1556367322461,6958.0,,,,,,,,,
1556367322463,6029.0,,,,,,,,,
1556367322464,,,,,-1.599375605583191,-17.767913818359375,-2.5522968769073486,,243.05743522000364,47.18274087180121
1556367322465,,33.448783831876064,42.1142578125,,,,,,,
1556367322469,,,42.12890625,,,,,,,
1556367322482,,,,,-1.4317762851715088,-17.729604721069336,-1.8771114349365234,,238.81669370774773,47.1502279012761
1556367322504,,,,9.554313396575417,-1.0558751821517944,,-1.4485362768173218,,229.67560565470956,47.218549608285336
1556367322505,,29.70439388580241,42.12890625,,,-17.691295623779297,,,,
1556367322524,,,,,-0.7925049662590027,,-1.30009126663208,,217.57755112505447,
1556367322525,,,,,,-17.490177154541016,,,,47.27942879714214
1556367322532,,,,,,,,1012.93603515625,,
1556367322543,,,,,,,,,207.38567944934482,47.02461466609163
1556367322544,,,,,-0.6225114464759827,-16.738374710083008,-1.0941835641860962,,205.27740495823696,
1556367322545,,32.30580110979017,,,,,,,,
1556367322546,,,42.12890625,,,,,,,
1556367322560,6029.0,,,,,,,,,
1556367322566,,,,9.478552852221867,,,,,,
1556367322567,,,,,-0.7110996246337891,,,,,
1556367322568,,,,,,-15.541237831115723,-0.7087053656578064,,202.2393368154153,46.87489863426549
1556367322585,,,,,-0.7757450342178345,,-0.41660380363464355,,,
1556367322586,,35.33379172933253,42.12890625,,,,,,,
1556367322587,,,0.0,,,-14.36325454711914,,,235.22125480789634,46.9840224422156
1556367322607,,,,,-0.6320885419845581,,-0.35674694180488586,,231.73733923681294,
1556367322608,,,,,,-13.307379722595215,,,229.6479980300844,46.884461787444984
1556367322628,,32.4979880561201,,8.599015609824638,-0.38547825813293457,,,,,
1556367322629,,,,,,-12.787821769714355,-0.24421602487564087,,226.25577091841922,46.99938241804474
1556367322636,,,,,,,,1012.91650390625,,
1556367322648,4792.0,,,,0.2011190801858902,,,,,
1556367322649,,,,,,-12.414315223693848,-0.06943397223949432,,94.9868807118554,46.22200762836657
1556367322661,4792.0,,,,,,,,,
1556367322666,,31.38872609747056,,,,,,,,
1556367322670,,,,,0.7637736797332764,-12.088693618774414,0.2490045726299286,,55.83474057791409,45.63566905512896
1556367322673,,,0.0,,,,,,,
1556367322689,,,,,1.333611011505127,,,,,
1556367322690,,,,10.433619708761231,,,1.1253091096878052,,32.30428126454575,
1556367322691,,,,,,-11.006481170654297,,,,45.66417934163571
1556367322706,,29.2878645889537,,,,,,,,
1556367322707,,,,,1.5874042510986328,,,,,
1556367322708,,,,,,-9.44301986694336,1.6161354780197144,,26.22409296917732,45.58740363792993
1556367322728,,,,,2.1285102367401123,,,,,
1556367322729,,,,,,-8.669669151306152,1.8531687259674072,,30.395246806621742,45.02127394146031
1556367322739,,,,,,,,1012.911865234375,,
1556367322745,,24.4973545423003,,,,,,,,
1556367322746,,,0.0,,,,,,,
1556367322750,,,,,2.7989072799682617,,,,,
1556367322751,,,,,,-8.916279792785645,1.6185297966003418,,40.52118666627325,44.986435433229595
1556367322752,,,,11.216278398963128,,,,,,
1556367322762,4792.0,,,,,,,,,
1556367322770,,,,,3.6512691974639893,,,,,
1556367322771,,,,,,-10.020040512084961,1.5874042510986328,,47.11744868740226,45.00919929074405
1556367322786,,23.276982663258853,,,,,,,,
1556367322791,,,,,3.902667999267578,,1.1348862648010254,,54.79707774863823,45.09673667073283
1556367322792,,,,,,-10.68325424194336,,,,
1556367322812,,,,,3.1772027015686035,,,,,
1556367322813,,,,11.094274374160761,,-10.700014114379883,0.9265843629837036,,52.82601492776678,45.04357697788304
1556367322826,,23.91231245183842,,,,,,,,
1556367322833,5775.0,,,,1.934574007987976,,0.9984126091003418,,,
1556367322834,,,,,,-10.64255142211914,,,39.47113387384303,44.57147836079517
1556367322842,,,,,,,,1012.917236328125,,
1556367322852,,,,,0.924190104007721,,0.797293484210968,,24.70941997355152,45.11620936627414
1556367322853,,,,,,-10.257073402404785,,,,
1556367322862,5775.0,,,,,,,,,
1556367322866,,27.981614954254162,0.0,,,,,,,
1556367322873,,,,,0.7613793611526489,,,,,
1556367322876,,,,6.6400680487949035,,,,,,
1556367322877,,,,,,-10.439038276672363,-0.30407288670539856,,85.2471265780656,45.588155978236976
1556367322898,,,,,1.051086664199829,,,,,
1556367322899,,,,,,,-1.7741576433181763,,,
1556367322902,,,,,,,,,120.97510846597191,
1556367322903,,,,,,-11.870814323425293,,,,45.61460350423772
1556367322905,,21.406134930585843,,,,,,,,
1556367322915,,,,,1.2067145109176636,,-3.284945011138916,,129.89937899399723,
1556367322916,,,,,,-14.772675514221191,,,,45.542172991509474
1556367322934,,,,,0.2298503816127777,,,,,
1556367322935,,,,8.327201061992888,,-17.32257843017578,-4.288146018981934,,146.07071245783783,45.496222736996
1556367322945,,23.864281839800313,0.0,,,,,1012.9248046875,,
1556367322952,,,,,-1.393467903137207,,,,,
1556367322953,,,,,,-18.98420524597168,-3.9553420543670654,,168.41741119558372,45.538575943103254
1556367322963,5775.0,,,,,,,,,
1556367322973,,,,,-2.5187771320343018,,,,,
1556367322974,,,,,,-20.210073471069336,-4.994457244873047,,176.9297666751439,45.71547181841531
1556367322985,,27.517542169990993,,,,,,,,
1556367322997,,,,,-2.7031362056732178,,,,,
1556367322998,,,,12.879825613606501,,-20.779911041259766,-5.408666610717773,,178.62555238189634,46.08429493756611
1556367323016,4428.0,,,,,,,,,
1556367323017,,,,,-2.513988494873047,-21.814237594604492,-6.644112586975098,,173.8496792085483,46.81568923711728
1556367323026,,30.955362203368544,,,,,,,,
1556367323027,,,0.0,,,,,,,
1556367323037,,,,,-2.26019549369812,,,,,
1556367323038,,,,,,-22.113521575927734,-8.150111198425293,,170.43879202007068,47.315694733902646
1556367323046,,,,,,,,1012.923828125,,
1556367323058,,,,18.136501267407013,-2.818061351776123,,-9.28260326385498,,,
1556367323059,,,,,,-20.98581886291504,,,181.35754973009705,47.27729627324003
1556367323063,4428.0,,,,,,,,,
1556367323065,,37.84579289859421,,,,,,,,
1556367323076,,,,,-3.723097324371338,,,,213.09437887839817,
1556367323077,,,,,,-18.713651657104492,-9.557945251464844,,,47.40049109821395
1556367323096,,,,,-4.90108060836792,,,,,
1556367323097,,,,,,-15.07435417175293,-8.509252548217773,,272.1117895340522,47.353723620521755
1556367323105,,35.54562017715208,,,,,,,,
1556367323119,,,,16.57941353380752,-5.274587631225586,-11.937853813171387,-6.785374641418457,,297.95322286252684,47.126744741424716
1556367323138,,,,,-4.7909440994262695,-10.386363983154297,-5.758230686187744,,307.3471611035443,47.71614786263404
1556367323145,,36.565242482195934,,,,,,,,
1556367323146,,,,,,,,1012.920654296875,,
1556367323150,,,39.0380859375,,,,,,,
1556367323156,,,,,-3.8523881435394287,,-5.71273946762085,,,
1556367323157,,,,,,-9.828497886657715,,,309.9151824578749,47.92644408150227
1556367323163,4428.0,,,,,,,,,
1556367323177,,,,,-2.786935806274414,,-6.301731109619141,,308.91137687631476,47.90217426161228
1556367323178,,,,,,-9.340065956115723,,,,
1556367323179,,,,15.112667383824126,,,,,,
1556367323185,,33.98883696247252,39.0380859375,,,,,,,
1556367323197,7686.0,,,,,,,,,
1556367323198,,,,,-1.8890827894210815,-8.717555046081543,-6.94100284576416,,310.42400764537877,47.853713775303
1556367323219,,,,,-1.2306572198867798,-8.059128761291504,-7.597033977508545,,313.9621924845125,47.99290985781321
1556367323225,,26.544444936897683,39.0380859375,,,,,,,
1556367323240,,,,14.243549158371769,,,,,,
1556367323241,,,,,-0.7948992252349854,,,,,
1556367323243,,,,,,,-8.037580490112305,,,
1556367323246,,,,,,,,,317.99598609510616,48.366623855726125
1556367323247,,,,,,-7.304932594299316,,,,
1556367323248,,,,,,,,1012.9365234375,,
1556367323255,,,,,-0.6536370515823364,,,,,
1556367323256,,,,,,-6.656084060668945,-7.867587089538574,,322.41980058278045,48.43356719174584
1556367323263,7686.0,,,,,,,,,
1556367323265,,25.315049843560832,,,,,,,,
1556367323278,,,,,-0.7709565162658691,-6.830865859985352,-7.2115559577941895,,320.8973377564063,48.67065257623901
1556367323300,,,,12.57071307239321,-0.8834874033927917,-8.595446586608887,-7.122967720031738,,317.11724469234355,48.877907402023006
1556367323305,,30.48843947359179,0.0,,,,,,,
1556367323318,,,,,-0.7541965842247009,,,,,
1556367323319,,,,,,-10.932258605957031,-7.6712565422058105,,313.24864945211044,48.55857448314317
1556367323340,,,,,-1.1277034282684326,,-8.418270111083984,,,
1556367323341,,,,,,-13.175694465637207,,,309.3766425323869,48.29001161475251
1556367323345,,33.769997370978025,,,,,,,,
1556367323349,,,,,,,,1012.942138671875,,
1556367323359,,,,,-2.2458298206329346,,,,,
1556367323360,,,,14.556709153241687,,-14.233963966369629,-7.960963726043701,,308.6258203274949,48.03737168048813
1556367323365,7686.0,,,,,,,,,
1556367323383,8143.0,,,,,,,,,
1556367323384,,,,,-3.536343812942505,-14.040027618408203,-6.103006362915039,,310.88081411216376,47.761922839193986
1556367323385,,37.264061082368656,,,,,,,,
1556367323400,,,,,-4.146883964538574,,-4.932206153869629,,,
1556367323401,,,,,,-14.063970565795898,,,307.6040411031339,47.87308029796047
1556367323421,,,,12.878732084809618,-4.3408203125,,,,,
1556367323422,,,,,,-14.087912559509277,-3.7614057064056396,,315.0677781299895,47.90063311908233
1556367323425,,37.563292216209106,,,,,,,,
1556367323434,,,322.998046875,,,,,,,
1556367323443,,,,,-4.1708269119262695,-15.256319046020508,-3.567469358444214,,310.97265283574376,47.74073739724457
1556367323449,,,,,,,,1012.943359375,,
1556367323459,,,,,-3.5531039237976074,-16.779077529907227,-3.4884583950042725,,300.57876807004726,47.69173444752286
1556367323465,8143.0,36.08783738042234,322.998046875,,,,,,,
1556367323479,,,,,-3.2394537925720215,,,,,
1556367323480,,,,13.201380940652928,,-18.019311904907227,-3.749434232711792,,289.80916484339207,47.79929206173869
1556367323498,,,,,-2.54032564163208,,-4.163643836975098,,,
1556367323499,,,,,,-19.0440616607666,,,273.45655815897936,47.80132384046372
1556367323505,,35.51795023142763,322.998046875,,,,,,,
1556367323520,,,,,-1.769369125366211,,,,,
1556367323521,,,,,,-19.738401412963867,-4.350397109985352,,255.04045570365736,47.21207047091491
1556367323541,,,,11.887967708785096,,,,,,
1556367323544,,,,,-1.2450228929519653,-19.951492309570312,-3.876330852508545,,226.26910344767907,47.368430564978134
1556367323545,,38.16883497483455,,,,,,,,
1556367323551,,,,,,,,1012.94873046875,,
1556367323564,5311.0,,,,-0.4022381603717804,-19.961069107055664,-3.227482557296753,,203.4024087480418,47.920243748153176
1556367323566,5311.0,,,,,,,,,
1556367323582,,,,,0.10295381397008896,,,,,
1556367323583,,,,,,-19.482213973999023,-2.6528565883636475,,178.5087834678458,47.72644502507757
1556367323585,,38.55414826316269,,,,,,,,
1556367323589,,,43.06640625,,,,,,,
1556367323604,,,,11.138228192055537,,,,,,
1556367323606,,,,,0.4740664064884186,,,,,
1556367323607,,,,,,-18.438310623168945,-2.0016138553619385,,159.84105684350055,47.85299868849222
1556367323623,,,,,0.40463244915008545,-16.83654022216797,-1.673598051071167,,148.15314151312634,47.09212439311779
1556367323625,,35.20207241883334,43.06640625,,,,,,,
1556367323645,,,,,0.4261809289455414,,,,,
1556367323646,,,,,,,-1.3575538396835327,,137.98714259399273,47.242256634696
1556367323647,,,,,,-15.162941932678223,,,,
1556367323653,,,,,,,,1012.931640625,,
1556367323664,,,,9.564516341109751,,,,,,
1556367323665,,,,,0.22266755998134613,,,,,
1556367323666,,34.977928372988956,43.06640625,,,,,,,
1556367323667,5311.0,,,,,,-0.7853221297264099,,130.75670433861723,47.188157869288844
1556367323668,,,,,,-13.83411979675293,,,,
1556367323684,,,,,-0.021548472344875336,-12.361640930175781,-0.28731298446655273,,132.26765146605078,46.45061710797737
1556367323704,,,,,0.021548472344875336,,,,,
1556367323705,,26.92524693983279,,,,,,,,
1556367323706,,,43.06640625,,,-11.3823823928833,0.004788549616932869,,46.61154340576854,46.35391079355917
1556367323718,,,56.767578125,,,,,,,
1556367323719,,,56.767578125,,,,,,,
1556367323726,,,,,0.4668835997581482,,,,,
1556367323727,,,,9.514034946431197,,,0.39984390139579773,,17.508407880667733,
1556367323728,,,,,,-10.568328857421875,,,,46.04138980096808
1556367323745,,28.12015508437981,56.767578125,,,,,,,
1556367323746,,,,,,,,,19.27193369606107,46.19010039337414
1556367323747,5537.0,,,,0.7589851021766663,-9.63216781616211,0.6320885419845581,,19.94760674460997,
1556367323755,,,,,,,,1012.90283203125,,
1556367323766,5537.0,,,,1.1851660013198853,,,,,
1556367323767,,,,,,-9.057541847229004,0.7613793611526489,,26.799437369007933,46.09581507810333
1556367323785,,31.121404710976638,56.767578125,,,,,,,
1556367323786,,,0.0,,,,,,,
1556367323787,,,,10.295490084928797,1.6161354780197144,,1.0175668001174927,,28.008968248368774,
1556367323788,,,,,,-8.047157287597656,,,28.987626780952155,45.887017878980735
1556367323806,,,,,1.769369125366211,-6.873962879180908,1.0008069276809692,,31.914810217693287,46.4540287517134
1556367323825,,32.31302536192348,,,,,,,,
1556367323827,,,,,1.9178141355514526,-5.942590236663818,1.0654523372650146,,33.429394420859865,46.19384382260643
1556367323849,,,,,2.0902018547058105,,,,,
1556367323850,,,,10.360343416038011,,-5.456552505493164,1.3288224935531616,,32.29945915099171,44.61200558992941
1556367323858,,,,,,,,1012.902099609375,,
1556367323866,5537.0,25.208977510304496,0.0,,,,,,,
1556367323868,,,,,2.698347806930542,,,,,
1556367323869,,,,,,-5.813299179077148,1.252205729484558,,41.21401715001724,44.21951079354846
1556367323889,,,,,3.0814316272735596,,,,,
1556367323890,,,,,,-6.598621368408203,0.9337671995162964,,49.41204732397347,44.372624753754884
1556367323905,,22.794437044704736,,,,,,,,
1556367323911,,,,9.949413523810005,3.0503060817718506,-8.226728439331055,0.9146129488945007,,49.59007620468981,44.63503741992968
1556367323932,5883.0,,,,1.8675343990325928,,,,,
1556367323933,,,,,,,0.28013014793395996,,55.28848936885311,44.923815116273644
1556367323934,,,,,,-11.241120338439941,,,,
1556367323946,,23.868122881984974,,,,,,,,
1556367323951,,,,,-0.5195576548576355,,,,,
1556367323952,,,,,,-13.709617614746094,-0.742225170135498,,187.53560609853537,44.84412843951532
1556367323962,,,,,,,,1012.9091796875,,
1556367323967,5883.0,,,,,,,,,
1556367323972,,,,7.256052319103574,-2.537931203842163,,,,,
1556367323973,,,,,,-14.791830062866211,-1.1109435558319092,,219.31583426882264,44.76317666356982
1556367323985,,27.441021926892173,,,,,,,,
1556367323988,,,0.0,,,,,,,
1556367323992,,,,,-3.16044282913208,,,,,
1556367323993,,,,,,-15.127028465270996,-1.0486923456192017,,225.43232331208247,45.412071322748105
1556367324012,,,,,-3.0311520099639893,,-1.4078335762023926,,219.68413172924812,
1556367324013,,,,,,-16.64739227294922,,,,46.32392360286939
1556367324025,,22.56572674462567,,,,,,,,
1556367324035,,,,11.550097602993313,-1.9992194175720215,,-3.3950817584991455,,184.32547183014276,45.94001975874922
1556367324036,,,,,,-20.595552444458008,,,,
1556367324053,,,,,-1.4030450582504272,,-6.098217964172363,,,
1556367324054,,,,,,-25.106365203857422,,,164.38085135837625,46.21951375608973
1556367324065,,20.765388980583296,0.0,,,,,1012.908447265625,,
1556367324071,5883.0,,,,,,,,,
1556367324073,,,,,-1.2617827653884888,,-9.277814865112305,,156.50777426437259,
1556367324074,,,,,,-26.85658073425293,,,156.18019839177876,47.414160241302866
1556367324096,,,,,-2.389486312866211,,,,,
1556367324097,,,,19.84081163653555,,-23.71529197692871,-12.117424964904785,,156.3528655739967,47.44425626810439
1556367324105,,30.87109483884353,,,,,,,,
1556367324115,3883.0,,,,,,,,,
1556367324116,,,,,-3.442967176437378,-19.039274215698242,-12.07193374633789,,161.1846779966471,47.41340139221814
1556367324133,,,,,-4.752635478973389,,,,,
1556367324134,,,,,,-15.818973541259766,-10.829304695129395,,202.34849689873045,47.98758445767692
1556367324145,,37.931289842938945,,,,,,,,
1556367324151,,,696.3134765625,,,,,,,
1556367324152,,,696.3134765625,,,,,,,
1556367324155,,,,17.581451942105865,-6.213143348693848,,-7.601822376251221,,271.0009480580089,
1556367324156,,,,,,-14.279455184936523,,,291.85181487695445,47.90093422070662
1556367324163,,,,,,,,1012.921875,,
1556367324172,3883.0,,,,,,,,,
1556367324173,,,,,-6.488484859466553,,-4.285751819610596,,293.0813103992593,
1556367324174,,,,,,-13.09189510345459,,,302.6801713908501,47.60314563958276
1556367324185,,40.78318941346104,696.3134765625,,,,,,,
1556367324192,,,,,-5.856396198272705,,,,,
1556367324193,,,,,,-11.672089576721191,-2.4014575481414795,,306.3101164063884,48.105706128848766
1556367324216,,,,,-4.21152925491333,-11.463788032531738,-3.258608102798462,,300.66240373643404,48.50000601325249
1556367324218,,,,14.304372820473793,,,,,,
1556367324225,,25.58153929418808,696.3134765625,,,,,,,
1556367324233,,,,,-2.9353809356689453,,,,,
1556367324235,,,,,,-10.644946098327637,-4.762212753295898,,296.9410571294227,48.556016463988016
1556367324254,,,,,-1.6759923696517944,-9.16288948059082,-6.146103382110596,,301.2043655866962,48.81168555464761
1556367324265,,31.541699363461653,696.3134765625,,,,,1012.946533203125,,
1556367324272,3883.0,,,,,,,,,
1556367324278,,,,14.125436961749239,-0.821236252784729,-7.685622215270996,-7.3623948097229,,312.17935260169367,48.616662835317285
1556367324297,8064.0,,,,-0.2370332032442093,,-7.848433017730713,,,
1556367324298,,,,,,-7.316903591156006,,,317.64450456041726,48.14830643467608
1556367324305,,30.00267535550559,,,,,,,,
1556367324315,,,,,-0.04309694468975067,,,,,
1556367324316,,,,,,-7.280989646911621,-7.7335076332092285,,320.35495584951013,48.516372125512355
1556367324336,,,,12.468677797801602,-0.13407939672470093,-6.895511627197266,-7.108602046966553,,321.3155775600428,48.91387450017403
1556367324346,,29.528426679653442,0.0,,,,,,,
1556367324358,,,,,-0.7087053656578064,-6.543552875518799,-6.536370277404785,,321.8749085813643,48.71397807300244
1556367324366,,,,,,,,1012.9482421875,,
1556367324372,8064.0,,,,,,,,,
1556367324374,,,,,-1.0295381546020508,,,,,
1556367324375,,,,,,,-6.076669692993164,,322.0718536709871,49.080804777239415
1556367324376,,,,,,-6.38074254989624,,,,
1556367324385,,28.5871175213569,,,,,,,,
1556367324396,,,,11.228422367905043,-1.1564347743988037,,-5.978504180908203,,,
1556367324397,,,,,,-7.218738555908203,,,321.44519064482756,49.17299130420797
1556367324414,,,,,-0.9888355135917664,-9.49090576171875,-6.672843933105469,,313.31182187174386,48.80729787595446
1556367324425,,24.5881336392208,0.0,,,,,,,
1556367324435,,,,,-0.5985686779022217,,-8.190814018249512,,313.6457259146037,
1556367324436,,,,,,-13.606663703918457,,,,49.08531513487161
1556367324456,,,,13.153722524812725,,,,,,
1556367324457,,,,,-1.283331274986267,,-9.217958450317383,,305.5753451460459,
1556367324458,,,,,,-16.97540855407715,,,,49.141757281069744
1556367324466,,30.980726796540804,,,,,,1012.944091796875,,
1556367324472,8064.0,,,,,,,,,
1556367324477,,,,,,,,,300.17642211660933,49.306531133596124
1556367324478,8350.0,,,,-3.1077687740325928,-15.802213668823242,-7.199584484100342,,305.30613323990985,
1556367324496,,,,,-4.350397109985352,,,,,
1556367324497,,,,,,-14.5045166015625,-5.4110612869262695,,313.14220436899035,49.23134194515801
1556367324505,,34.007461560373045,,,,,,,,
1556367324519,,,,13.34410276996365,-4.659258842468262,,-4.27138614654541,,,
1556367324520,,,,,,-14.05439281463623,,,316.18222936100926,48.43371372900171
1556367324537,,,,,-4.173221111297607,,,,,
1556367324538,,,,,,-14.875629425048828,-3.684788942337036,,312.8023307407959,48.068687555098215
1556367324545,,37.37290029067272,,,,,,,,
1556367324548,,,270.9619140625,,,,,,,
1556367324558,,,,,-3.591412305831909,,,,,
1556367324559,,,,,,-16.714431762695312,-3.6081721782684326,,304.50206288024845,48.34205642767354
1556367324568,,,,,,,,1012.9375,,
1556367324573,8350.0,,,,,,,,,
1556367324582,,,,13.551277263731107,-2.98087215423584,,-4.209135055541992,,,
1556367324583,,,,,,,,,290.2274251375962,
1556367324584,,,,,,-18.65379524230957,,,282.04369054957283,48.49507023531041
1556367324585,,30.599215139994243,270.9619140625,,,,,,,
1556367324599,,,,,-2.2745611667633057,,-4.379128456115723,,273.00940616458615,48.24872933053694
1556367324600,,,,,,-19.431934356689453,,,,
1556367324621,,,,,-1.5059988498687744,-19.872480392456055,-4.173221111297607,,250.62278497114153,48.59607412668356
1556367324625,,31.32960318272197,,,,,,,,
1556367324626,,,270.9619140625,,,,,,,
1556367324641,,,,11.79524124655588,,,,,,
1556367324642,,,,,-0.8691217303276062,,,,,
1556367324643,,,,,,,-3.6081721782684326,,223.90917746679128,
1556367324644,,,,,,-20.17655372619629,,,,48.29895628262298
1556367324662,,,,,,,,,196.56310810567618,47.80076007454144
1556367324663,5522.0,,,,-0.3735068738460541,-19.733612060546875,-2.849187135696411,,188.35326170445592,
1556367324666,,28.774516632126677,,,,,,,,
1556367324670,,,,,,,,1012.93310546875,,
1556367324674,5522.0,,,,,,,,,
1556367324682,,,,,0.09337671846151352,,-2.0016138553619385,,177.84226628787926,
1556367324685,,,,,,-19.202083587646484,,,,48.00569601528044
1556367324704,,,,11.018300179373107,,,,,,
1556367324705,,,,,0.48843204975128174,,-1.5610672235488892,,,
1556367324706,,27.99485899590042,0.0,,,-18.07677459716797,,,159.84622046651307,48.343543030423234
1556367324722,,,,,0.5985686779022217,,-1.3671308755874634,,139.6939385656872,
1556367324723,,,,,,-16.870059967041016,,,,48.72953170493423
1556367324741,,,,,,,,,129.9467395257021,47.673424016035675
1556367324743,,,,,0.3902668058872223,,-0.991229772567749,,,
1556367324744,,,,,,-15.277867317199707,,,132.69773481770812,
1556367324746,,29.348781754875986,,,,,,,,
1556367324762,,,,9.874755470048953,,,,,,
1556367324763,,,,,0.11013664305210114,,,,,
1556367324764,,,,,,-13.14217472076416,-0.4261809289455414,,129.7350309821884,47.572130875686746
1556367324773,,,,,,,,1012.929443359375,,
1556367324774,5522.0,,,,,,,,,
1556367324783,,,,,-0.42378664016723633,,,,,
1556367324784,,,,,,-11.363227844238281,-0.04549122229218483,,136.6598865740975,48.00427382048759
1556367324786,,27.543574380318347,0.0,,,,,,,
1556367324803,,,,,0.03830839693546295,-10.585088729858398,0.13407939672470093,,347.71455923046557,47.03314758054493
1556367324825,,27.35741436206041,,,,,,,,
1556367324826,,,,9.14521577758843,0.6656084060668945,-10.029617309570312,0.25139886140823364,,39.9603154372939,46.575692048562765
1556367324845,5455.0,,,,,,,,,
1556367324846,,,,,0.9098244309425354,-9.328094482421875,0.2897072434425354,,42.24760577145321,46.28738394330976
1556367324865,,,,,1.3862850666046143,,0.5458946824073792,,38.2802459958217,
1556367324866,,28.13299527455357,,,,-8.516435623168945,,,38.761002520931356,46.309545840419254
1556367324874,,,,,,,,1012.919189453125,,
1556367324875,5455.0,,,,,,,,,
1556367324886,,,,9.832033577919868,1.5897984504699707,-7.3288750648498535,0.8379961848258972,,32.63588353365526,46.751512422382795
1556367324905,,24.286764606655908,,,1.594586968421936,,,,,
1556367324906,,,0.0,,,-6.170046329498291,1.022355318069458,,28.859840771770394,46.115335054649826
1556367324927,,,,,1.6664152145385742,,,,,
1556367324928,,,,,,-5.207547664642334,1.13009774684906,,28.30069075046191,45.96540153173138
1556367324947,,,,,1.9297854900360107,,1.132491946220398,,33.410607985547756,
1556367324948,,19.19018763339233,,,,-4.941783428192139,,,34.80248442518041,45.55205105865528
1556367324950,,,,9.935506752732532,,,,,,
1556367324966,,,,,2.317657947540283,-5.176422119140625,0.931372880935669,,43.92955693004177,44.61257105846952
1556367324975,5455.0,,,,,,,1012.91943359375,,
1556367324985,,22.6214693459849,,,2.597788095474243,,,,,
1556367324986,,,0.0,,,-6.560312747955322,0.5554717779159546,,54.15253670232619,44.906502759759704
1556367325007,,,,8.898729435098138,2.2530126571655273,,,,,
1556367325008,,,,,,-9.299363136291504,0.45251792669296265,,54.8404528649624,44.4082273817416
1556367325025,,21.714677436485708,,,,,,,,
1556367325028,5749.0,,,,0.3615354895591736,,,,,
1556367325029,,,,,,-11.327314376831055,-0.13168510794639587,,85.2252289915865,44.13883890399978
1556367325047,,,,,-1.8172545433044434,,-0.9409499764442444,,217.2029015887009,44.34182626761892
1556367325048,,,,,,-12.376006126403809,,,,
1556367325066,,23.480663270762708,0.0,,,,,,,
1556367325069,,,,5.119974044495597,-2.849187135696411,,-1.7166950702667236,,,
1556367325070,,,,,,-12.483748435974121,,,214.66595076490472,44.52994288461208
1556367325080,5749.0,,,,,,,1012.92529296875,,
1556367325088,,,,,-2.7438390254974365,,,,,
1556367325091,,,,,,-12.948238372802734,-1.9561225175857544,,211.66816707780777,45.10423945758448
1556367325105,,21.287753648260136,,,,,,,,
1556367325110,,,,,-1.97048819065094,,-3.8667538166046143,,,
1556367325111,,,,,,-15.581940650939941,,,183.65049887598366,45.371862522073364
1556367325131,,,,10.832729929234208,-0.9026415944099426,-19.45587730407715,-6.069486618041992,,162.52905047060239,46.04096009931218
1556367325145,,25.62608423717193,,,,,,,,
1556367325150,,,,,-0.40942099690437317,-22.7456111907959,-8.933039665222168,,154.06234797545457,46.48098819621085
1556367325169,,,,,-0.7374366521835327,,,,,
1556367325170,,,,,,-22.75997543334961,-10.836487770080566,,153.143291381116,46.63204505591739
1556367325180,5749.0,,,,,,,1012.91552734375,,
1556367325185,,25.898204702227382,0.0,,,,,,,
1556367325190,,,,16.47409150508667,-1.9848538637161255,-20.090360641479492,-10.879584312438965,,159.33130616536414,46.98555425401653
1556367325214,3821.0,,,,-3.6392977237701416,-16.613872528076172,-9.170072555541992,,175.73977013680926,47.314289805252194
1556367325225,,35.49115706020271,,,,,,,,
1556367325231,,,,,-4.604190349578857,,,,,
1556367325232,,,,,,,-7.230710029602051,,227.9618292296833,46.87758732810628
1556367325233,,,,,,-14.969006538391113,,,,
1556367325257,,,,,-5.674431324005127,,-4.6401047706604,,268.2677044276557,46.81576534341111
1556367325258,,,,14.58181307180069,,-12.957815170288086,,,,
1556367325265,,34.48678457380682,,,,,,,,
1556367325274,,,,,-5.818087577819824,,,,,
1556367325275,,,,,,-11.4254789352417,-2.851581335067749,,291.6152990863753,47.62631932064309
1556367325277,,,146.53466796875,,,,,,,
1556367325280,3821.0,,,,,,,1012.9130859375,,
1556367325291,,,,,-5.308107376098633,,-1.9369683265686035,,,
1556367325292,,,,,,-10.225947380065918,,,304.1080224368412,47.459278154634696
1556367325305,,35.60946940916347,146.53466796875,,,,,,,
1556367325312,,,,,-3.7422516345977783,,,,,
1556367325313,,,,12.802934453289776,,-10.448615074157715,-3.0287575721740723,,294.8139996180973,47.49381622365265
1556367325332,,,,,-2.5858168601989746,,-4.422225475311279,,286.7109978660635,
1556367325333,,,,,,-10.676071166992188,,,,48.27931109388067
1556367325346,,27.035623558784273,146.53466796875,,,,,,,
1556367325359,,,,,-1.3575538396835327,-10.000885963439941,-5.585843086242676,,284.75295338575006,47.98053205318351
1556367325372,,,,11.890807221829759,,,,,,
1556367325373,,,,,-0.7565908432006836,,,,,
1556367325374,,,,,,-9.608224868774414,-6.282577037811279,,290.9373140187923,47.69724392089052
1556367325380,3821.0,,,,,,,,,
1556367325382,,,,,,,,1012.917236328125,,
1556367325385,,27.58731280549792,,,,,,,,
1556367325393,7636.0,,,,-0.13168510794639587,,-6.560312747955322,,,
1556367325394,,,,,,-8.968953132629395,,,300.5654082200307,48.36859774102897
1556367325411,,,,,0.05746259540319443,-8.288979530334473,-6.51242733001709,,311.13257488497044,48.79627086688307
1556367325425,,24.975572362693175,,,,,,,,
1556367325432,,,,,-0.2130904644727707,,,,,
1556367325433,,,,10.409058337976516,,-7.247469902038574,-6.2155375480651855,,319.58567164329156,49.51588643544533
1556367325451,,,,,-0.7230709791183472,,,,,
1556367325452,,,,,,-6.565101623535156,-5.942590236663818,,321.8368473522144,49.36760518472417
1556367325465,,25.53541790530131,0.0,,,,,,,
1556367325473,,,,,-1.1253091096878052,,,,,
1556367325474,,,,,,-6.809317588806152,-5.947378635406494,,320.62975143529263,49.03237089342098
1556367325480,7636.0,,,,,,,,,
1556367325483,,,,,,,,1012.9306640625,,
1556367325494,,,,10.296054373241153,,,,,,
1556367325495,,,,,-1.3096683025360107,-8.159688949584961,-5.980898380279541,,322.3315067273797,48.80010551974349
1556367325505,,26.006593265414445,,,,,,,,
1556367325514,,,,,-1.0103839635849,-10.30495834350586,-6.660872459411621,,316.0873443730594,48.58047710357173
1556367325535,,,,,-0.5482889413833618,,-8.6600923538208,,311.5955046163464,
1556367325536,,,,,,-14.33452320098877,,,,48.86468548577385
1556367325546,,25.32000689518144,0.0,,,,,,,
1556367325556,,,,16.237647423431028,-1.3575538396835327,,,,,
1556367325557,,,,,,-17.356098175048828,-10.21158218383789,,307.60804017889296,48.81127910136132
1556367325576,8074.0,,,,,,,,307.2507837192609,48.391811183940774
1556367325578,,,,,-3.009603500366211,-15.459832191467285,-7.879558563232422,,309.03682354570583,
1556367325580,8074.0,,,,,,,,,
1556367325585,,35.38866281144243,,,,,,1012.932861328125,,
1556367325596,,,,,-4.142095565795898,,,,,
1556367325598,,,,,,,-5.585843086242676,,309.14043751541493,48.19183982421089
1556367325599,,,,,,-13.19484806060791,,,,
1556367325620,,,,,-4.7310872077941895,,,,,
1556367325621,,,,11.95927703713634,,-11.99292278289795,-3.9553420543670654,,321.4709677787552,48.2576430171146
1556367325625,,38.20885620830105,,,,,,,,
1556367325636,,,99.3023681640625,,,,,,,
1556367325638,,,,,-4.216318130493164,,,,,
1556367325639,,,,,,-12.900352478027344,-3.6823947429656982,,318.095512196597,47.98342099662708
1556367325657,,,,,-3.126922845840454,,-4.130124092102051,,302.99053177164086,48.452106285206064
1556367325658,,,,,,-14.887600898742676,,,,
1556367325665,,38.9705640815422,99.3023681640625,,,,,,,
1556367325678,,,,,-2.5499026775360107,,,,,
1556367325679,,,,,,,-4.925023078918457,,288.8266831124208,48.57921700629879
1556367325680,,,,,,-16.630632400512695,,,,
1556367325681,8074.0,,,11.72360511404735,,,,,,
1556367325691,,,,,,,,1012.931640625,,
1556367325697,,,,,-2.008796453475952,,,,,
1556367325698,,,,,,-17.408771514892578,-5.276981830596924,,275.5683228767531,47.50829406717031
1556367325705,,33.1299616653788,,,,,,,,
1556367325706,,,99.3023681640625,,,,,,,
1556367325717,,,,,-1.6137412786483765,,,,,
1556367325718,,,,,,-17.08315086364746,-4.927417755126953,,260.6892133925547,47.29454016280766
1556367325740,,,,8.6792932621707,-1.3695251941680908,-16.580352783203125,-4.0487189292907715,,242.23372806647842,48.30577486665058
1556367325745,,30.710370164126036,99.3023681640625,,,,,,,
1556367325762,6055.0,,,,-1.0726351737976074,,,,,
1556367325763,,,,,,-16.879636764526367,-2.9521408081054688,,223.62183140840887,48.416875036455544
1556367325779,,,,,-0.4357580244541168,,,,,
1556367325780,,,,,,-17.145401000976562,-2.3152637481689453,,197.66869716624785,47.502268795785646
1556367325781,6055.0,,,,,,,,,
1556367325785,,30.136002480066303,,,,,,,,
1556367325789,,,,,,,,1012.930419921875,,
1556367325802,,,,,-0.04549122229218483,-17.08554458618164,-2.3080809116363525,,174.951334080158,46.996546402664286
1556367325803,,,,8.508211545106825,,,,,,
1556367325819,,,,,0.10534809529781342,,-1.9728823900222778,,,
1556367325820,,,,,,-16.333742141723633,,,161.4430640529487,47.48324192535793
1556367325825,,27.420652808182613,0.0,,,,,,,
1556367325840,,,,,0.2944957911968231,,,,,
1556367325841,,,,,,-14.40395736694336,-1.4078335762023926,,145.55564789252716,47.55642517761864
1556367325863,,,,,0.023942748084664345,,,,,
1556367325864,,,,7.3438110349026156,,-12.562760353088379,-0.6464542150497437,,152.0244654139329,47.34794488928374
1556367325865,,25.9577794669126,,,,,,,,
1556367325882,6055.0,,,,,,,,,
1556367325887,,,,,-0.20590762794017792,,-0.12210801243782043,,,
1556367325888,,,,,,,,,211.7465366683445,
1556367325893,,,,,,,,1012.940185546875,,
1556367325904,,,,,-0.1412622183561325,,0.19393625855445862,,,
1556367325905,,26.14937251352693,,,,-10.676071166992188,,,294.0951973400343,46.462047168166066
1556367325906,,,0.0,,,,,,,
1556367325923,,,,8.633012229024374,0.39266106486320496,,,,,
1556367325924,,,,,,-10.28341007232666,0.46448931097984314,,7.851205120733994,46.35235817134265
1556367325944,4795.0,,,,1.0630580186843872,,0.6608198285102844,,24.984391436705153,
1556367325945,,,,,,-9.938634872436523,,,24.87317546644988,45.72826506808219
1556367325946,,27.07296857844039,,,,,,,,
1556367325963,,,,,1.3120626211166382,,,,,
1556367325964,,,,,,-8.995290756225586,0.7613793611526489,,26.48788682775421,45.618546185773205
1556367325983,4795.0,,,,,,,,,
1556367325985,,,,,1.3264282941818237,,,,,
1556367325986,,24.72298626693287,,9.264360569948664,,,,,,
1556367325987,,,,,,-7.728719234466553,0.7637736797332764,,26.262306170036197,45.854919738799126
1556367325994,,,,,,,,1012.94287109375,,
1556367326004,,,,,1.3791022300720215,,,,,
